letter10,letter20,corrAns0,letterset,letterset2,letterset3,letter1,letter2,corrAns,letterA,letterC,letterE,letter3,letter4,letterA2,letterB2,pickA,avoidB,preparation.thisRepN,preparation.thisTrialN,preparation.thisN,preparation.thisIndex,letterMaster.thisRepN,letterMaster.thisTrialN,letterMaster.thisN,letterMaster.thisIndex,practice.thisRepN,practice.thisTrialN,practice.thisN,practice.thisIndex,test.thisRepN,test.thisTrialN,test.thisN,test.thisIndex,trials.thisRepN,trials.thisTrialN,trials.thisN,trials.thisIndex,learnt_letters,numbers,question,text.started,text.stopped,welc_resp.keys,welc_resp.rt,welc_resp.started,welc_resp.stopped,instr1.started,instr1.stopped,intr0_resp.keys,intr0_resp.rt,intr0_resp.started,intr0_resp.stopped,fixation0.started,fixation0.stopped,letter0_1.started,letter0_1.stopped,letter0_2.started,letter0_2.stopped,prep_resp.keys,prep_resp.corr,prep_resp.rt,prep_resp.started,prep_resp.stopped,prep_feedb.started,prep_feedb.stopped,prep_outro.started,prep_outro.stopped,outro_resp.keys,outro_resp.rt,outro_resp.started,outro_resp.stopped,pract_intr.started,pract_intr.stopped,instr1_resp.keys,instr1_resp.rt,instr1_resp.started,instr1_resp.stopped,resp1,resp2,resp3,response1,response2,response3,Corr1,Corr2,Corr3,jitter,myCount1,myCount2,myCount3,myCount,fixation1.started,fixation1.stopped,letter1_1.started,letter1_1.stopped,letter1_2.started,letter1_2.stopped,resp.keys,resp.corr,resp.started,resp.stopped,blank_feed.started,blank_feed.stopped,feedb.started,feedb.stopped,resp.rt,instr2.started,instr2.stopped,instr2_resp.keys,instr2_resp.rt,instr2_resp.started,instr2_resp.stopped,instr3.started,instr3.stopped,instr3_resp.keys,instr3_resp.rt,instr3_resp.started,instr3_resp.stopped,posLB,negLB,fixation2.started,fixation2.stopped,letter2_1.started,letter2_1.stopped,letter2_2.started,letter2_2.stopped,test_resp.keys,test_resp.started,test_resp.stopped,check.started,check.stopped,check_resp.keys,check_resp.rt,check_resp.started,check_resp.stopped,participant,,date,expName,psychopyVersion,frameRate,
,,,,,,,,,,,,,,,,,,,,,,,,,,,,,,,,,,,,,,,,,11.827493462129496,None,space,12.051634595962241,11.827493462129496,None,,,,,,,,,,,,,,,,,,,,,,,,,,,,,,,,,,,,,,,,,,,,,,,,,,,,,,,,,,,,,,,,,,,,,,,,,,,,,,,,,,,,,,,,,,,,2019_May_27_1756,Probabilistic Learning,3.1.0,61.47887568136281,
,,,,,,,,,,,,,,,,,,,,,,,,,,,,,,,,,,,,,,,,,,,,,,,23.89434449886903,None,space,0.3843127634609118,23.89434449886903,None,,,,,,,,,,,,,,,,,,,,,,,,,,,,,,,,,,,,,,,,,,,,,,,,,,,,,,,,,,,,,,,,,,,,,,,,,,,,,,,,,,,,,,2019_May_27_1756,Probabilistic Learning,3.1.0,61.47887568136281,
U,L,c,,,,,,,,,,,,,,,,0,0,0,4,,,,,,,,,,,,,,,,,,,,,,,,,,,,,,,,24.37303552881349,24.87774502520915,24.87774502520915,None,24.87774502520915,None,c,1,0.583682470023632,24.87774502520915,None,25.479387421743013,None,,,,,,,,,,,,,,,,,,,,,,,,,,,,,,,,,,,,,,,,,,,,,,,,,,,,,,,,,,,,,,,,,,,,,,,,,2019_May_27_1756,Probabilistic Learning,3.1.0,61.47887568136281,
L,U,m,,,,,,,,,,,,,,,,0,1,1,7,,,,,,,,,,,,,,,,,,,,,,,,,,,,,,,,26.07949590892531,26.577728500706144,26.59454402513802,None,26.59454402513802,None,c,0,0.2170812515541911,26.59454402513802,None,26.82879951724317,None,,,,,,,,,,,,,,,,,,,,,,,,,,,,,,,,,,,,,,,,,,,,,,,,,,,,,,,,,,,,,,,,,,,,,,,,,2019_May_27_1756,Probabilistic Learning,3.1.0,61.47887568136281,
L,U,c,,,,,,,,,,,,,,,,0,2,2,8,,,,,,,,,,,,,,,,,,,,,,,,,,,,,,,,27.42784930439666,27.927848277962767,27.944496504263952,None,27.944496504263952,None,c,1,0.21833906730171293,27.944496504263952,None,28.18188242323231,None,,,,,,,,,,,,,,,,,,,,,,,,,,,,,,,,,,,,,,,,,,,,,,,,,,,,,,,,,,,,,,,,,,,,,,,,,2019_May_27_1756,Probabilistic Learning,3.1.0,61.47887568136281,
L,U,m,,,,,,,,,,,,,,,,0,3,3,3,,,,,,,,,,,,,,,,,,,,,,,,,,,,,,,,28.777583679999225,29.278250306961127,29.29486004426144,None,29.29486004426144,None,c,0,0.13489420188125223,29.29486004426144,None,29.44462428719271,None,,,,,,,,,,,,,,,,,,,,,,,,,,,,,,,,,,,,,,,,,,,,,,,,,,,,,,,,,,,,,,,,,,,,,,,,,2019_May_27_1756,Probabilistic Learning,3.1.0,61.47887568136281,
U,L,m,,,,,,,,,,,,,,,,0,4,4,9,,,,,,,,,,,,,,,,,,,,,,,,,,,,,,,,30.045292659080587,30.544732261332683,30.561195741058327,None,30.561195741058327,None,c,0,0.11717341945040971,30.561195741058327,None,30.694666368421167,None,,,,,,,,,,,,,,,,,,,,,,,,,,,,,,,,,,,,,,,,,,,,,,,,,,,,,,,,,,,,,,,,,,,,,,,,,2019_May_27_1756,Probabilistic Learning,3.1.0,61.47887568136281,
L,U,m,,,,,,,,,,,,,,,,0,5,5,2,,,,,,,,,,,,,,,,,,,,,,,,,,,,,,,,31.29518283752259,31.794831305975094,31.812362723168917,None,31.812362723168917,None,c,0,0.016337749548256397,31.812362723168917,None,31.844722613459453,None,,,,,,,,,,,,,,,,,,,,,,,,,,,,,,,,,,,,,,,,,,,,,,,,,,,,,,,,,,,,,,,,,,,,,,,,,2019_May_27_1756,Probabilistic Learning,3.1.0,61.47887568136281,
U,L,c,,,,,,,,,,,,,,,,0,6,6,1,,,,,,,,,,,,,,,,,,,,,,,,,,,,,,,,32.445209317840636,32.944821350160055,32.961445969878696,None,32.961445969878696,None,c,1,0.3005687113618478,32.961445969878696,None,33.27865418337751,None,,,,,,,,,,,,,,,,,,,,,,,,,,,,,,,,,,,,,,,,,,,,,,,,,,,,,,,,,,,,,,,,,,,,,,,,,2019_May_27_1756,Probabilistic Learning,3.1.0,61.47887568136281,
U,L,c,,,,,,,,,,,,,,,,0,7,7,5,,,,,,,,,,,,,,,,,,,,,,,,,,,,,,,,33.87809142493643,34.378223313367926,34.39477198186796,None,34.39477198186796,None,c,1,0.1503277198644355,34.39477198186796,None,34.561434371978976,None,,,,,,,,,,,,,,,,,,,,,,,,,,,,,,,,,,,,,,,,,,,,,,,,,,,,,,,,,,,,,,,,,,,,,,,,,2019_May_27_1756,Probabilistic Learning,3.1.0,61.47887568136281,
U,L,c,,,,,,,,,,,,,,,,0,8,8,6,,,,,,,,,,,,,,,,,,,,,,,,,,,,,,,,35.16166961577255,35.661483329720795,35.67823008750565,None,35.67823008750565,None,c,1,0.16724742064252496,35.67823008750565,None,35.861828600405715,None,,,,,,,,,,,,,,,,,,,,,,,,,,,,,,,,,,,,,,,,,,,,,,,,,,,,,,,,,,,,,,,,,,,,,,,,,2019_May_27_1756,Probabilistic Learning,3.1.0,61.47887568136281,
U,L,c,,,,,,,,,,,,,,,,0,9,9,0,,,,,,,,,,,,,,,,,,,,,,,,,,,,,,,,36.461644059279934,36.96167023165617,36.978445727727376,None,36.978445727727376,None,c,1,0.21681490866467357,36.978445727727376,None,37.21149164333474,None,,,,,,,,,,,,,,,,,,,,,,,,,,,,,,,,,,,,,,,,,,,,,,,,,,,,,,,,,,,,,,,,,,,,,,,,,2019_May_27_1756,Probabilistic Learning,3.1.0,61.47887568136281,
,,,,,,,,,,,,,,,,,,,,,,,,,,,,,,,,,,,,,,,,,,,,,,,,,,,,,,,,,,,,,,,,,,37.81165606772993,None,space,1.1506207482889295,37.81165606772993,None,,,,,,,,,,,,,,,,,,,,,,,,,,,,,,,,,,,,,,,,,,,,,,,,,,,,,,,,,,,,,,,,,,,2019_May_27_1756,Probabilistic Learning,3.1.0,61.47887568136281,
,,,hiragana2.xlsx,hiragana21.xlsx,hiragana22.xlsx,J,s,c,m,None,None,,,,,,,,,,,0,0,0,1,0,0,0,9,,,,,,,,,,,,,,,,,,,,,,,,,,,,,,,,,,,,,,,,,,,38.98203442862723,None,space,0.5807142094708979,38.98203442862723,None,0,0,0,[0],[0],[0],[],[],[],0.3,1,0,0,1,39.59997146693058,39.89506039163098,39.91174146172125,None,39.91174146172125,None,None,0,39.91174146172125,None,41.4045820212923,41.74531205743551,41.76181710511446,None,,,,,,,,,,,,,,,,,,,,,,,,,,,,,,,,,2019_May_27_1756,Probabilistic Learning,3.1.0,61.47887568136281,
,,,hiragana2.xlsx,hiragana21.xlsx,hiragana22.xlsx,W,V,m,None,None,m,,,,,,,,,,,0,0,0,1,0,1,1,25,,,,,,,,,,,,,,,,,,,,,,,,,,,,,,,,,,,,,,,,,,,,,,,,,0,0,0,"[0, 0]","[0, 0]","[0, 0]",[],[],[],0.6,2,0,0,1,42.34982315660454,42.94522727932781,42.96189603290986,None,42.96189603290986,None,None,0,42.96189603290986,None,44.44531811296474,44.79528701398522,44.81194909627084,None,,,,,,,,,,,,,,,,,,,,,,,,,,,,,,,,,2019_May_27_1756,Probabilistic Learning,3.1.0,61.47887568136281,
,,,hiragana2.xlsx,hiragana21.xlsx,hiragana22.xlsx,o,b,c,None,c,None,,,,,,,,,,,0,0,0,1,0,2,2,10,,,,,,,,,,,,,,,,,,,,,,,,,,,,,,,,,,,,,,,,,,,,,,,,,0,0,0,"[0, 0, 0]","[0, 0, 0]","[0, 0, 0]",[],[],[],0.3,3,0,0,1,45.39754420577083,45.695315033895895,45.71204639610369,None,45.71204639610369,None,None,0,45.71204639610369,None,47.19548643764574,47.54617636313196,47.56208714295644,None,,,,,,,,,,,,,,,,,,,,,,,,,,,,,,,,,2019_May_27_1756,Probabilistic Learning,3.1.0,61.47887568136281,
,,,hiragana2.xlsx,hiragana21.xlsx,hiragana22.xlsx,o,b,c,None,c,None,,,,,,,,,,,0,0,0,1,0,3,3,12,,,,,,,,,,,,,,,,,,,,,,,,,,,,,,,,,,,,,,,,,,,,,,,,,0,0,0,"[0, 0, 0, 0]","[0, 0, 0, 0]","[0, 0, 0, 0]",[],[],[],0.5,4,0,0,1,48.14588046085555,48.6455489435466,48.662274147500284,None,48.662274147500284,None,None,0,48.662274147500284,None,50.14645471458789,50.49583704548422,50.51222919241991,None,,,,,,,,,,,,,,,,,,,,,,,,,,,,,,,,,2019_May_27_1756,Probabilistic Learning,3.1.0,61.47887568136281,
,,,hiragana2.xlsx,hiragana21.xlsx,hiragana22.xlsx,s,J,c,c,None,None,,,,,,,,,,,0,0,0,1,0,4,4,2,,,,,,,,,,,,,,,,,,,,,,,,,,,,,,,,,,,,,,,,,,,,,,,,,0,0,0,"[0, 0, 0, 0, 0]","[0, 0, 0, 0, 0]","[0, 0, 0, 0, 0]",[],[],[],0.5,5,0,0,1,51.0961821108358,51.595728455577046,51.612220673589036,None,51.612220673589036,None,None,0,51.612220673589036,None,53.09551137837116,53.44616435468197,53.462098227697425,None,,,,,,,,,,,,,,,,,,,,,,,,,,,,,,,,,2019_May_27_1756,Probabilistic Learning,3.1.0,61.47887568136281,
,,,hiragana2.xlsx,hiragana21.xlsx,hiragana22.xlsx,W,V,m,None,None,m,,,,,,,,,,,0,0,0,1,0,5,5,24,,,,,,,,,,,,,,,,,,,,,,,,,,,,,,,,,,,,,,,,,,,,,,,,,0,0,0,"[0, 0, 0, 0, 0, 0]","[0, 0, 0, 0, 0, 0]","[0, 0, 0, 0, 0, 0]",[],[],[],0.7,6,0,0,1,54.045962365111336,54.74612596840598,54.76238879293669,None,54.76238879293669,None,None,0,54.76238879293669,None,56.245641008834355,56.59584289568011,56.61236487852875,None,,,,,,,,,,,,,,,,,,,,,,,,,,,,,,,,,2019_May_27_1756,Probabilistic Learning,3.1.0,61.47887568136281,
,,,hiragana2.xlsx,hiragana21.xlsx,hiragana22.xlsx,V,W,m,None,None,c,,,,,,,,,,,0,0,0,1,0,6,6,27,,,,,,,,,,,,,,,,,,,,,,,,,,,,,,,,,,,,,,,,,,,,,,,,,0,0,0,"[0, 0, 0, 0, 0, 0, 0]","[0, 0, 0, 0, 0, 0, 0]","[0, 0, 0, 0, 0, 0, 0]",[],[],[],0.6,7,0,0,1,57.1961746183224,57.79603369778488,57.81273324252106,None,57.81273324252106,None,None,0,57.81273324252106,None,59.296308764838614,59.64654760097619,59.66356839938089,None,,,,,,,,,,,,,,,,,,,,,,,,,,,,,,,,,2019_May_27_1756,Probabilistic Learning,3.1.0,61.47887568136281,
,,,hiragana2.xlsx,hiragana21.xlsx,hiragana22.xlsx,V,W,c,None,None,c,,,,,,,,,,,0,0,0,1,0,7,7,20,,,,,,,,,,,,,,,,,,,,,,,,,,,,,,,,,,,,,,,,,,,,,,,,,0,0,0,"[0, 0, 0, 0, 0, 0, 0, 0]","[0, 0, 0, 0, 0, 0, 0, 0]","[0, 0, 0, 0, 0, 0, 0, 0]",[],[],[],0.3,8,0,0,1,60.24672844738234,60.54675728827715,60.562985729426146,None,60.562985729426146,None,None,0,60.562985729426146,None,62.046198430121876,62.396206333185546,62.412839677068405,None,,,,,,,,,,,,,,,,,,,,,,,,,,,,,,,,,2019_May_27_1756,Probabilistic Learning,3.1.0,61.47887568136281,
,,,hiragana2.xlsx,hiragana21.xlsx,hiragana22.xlsx,W,V,c,None,None,m,,,,,,,,,,,0,0,0,1,0,8,8,29,,,,,,,,,,,,,,,,,,,,,,,,,,,,,,,,,,,,,,,,,,,,,,,,,0,0,0,"[0, 0, 0, 0, 0, 0, 0, 0, 0]","[0, 0, 0, 0, 0, 0, 0, 0, 0]","[0, 0, 0, 0, 0, 0, 0, 0, 0]",[],[],[],0.5,9,0,0,1,62.99659604567569,63.49614136398304,63.5127002960071,None,63.5127002960071,None,None,0,63.5127002960071,None,64.9962434876943,65.3470904477872,65.36297864746302,None,,,,,,,,,,,,,,,,,,,,,,,,,,,,,,,,,2019_May_27_1756,Probabilistic Learning,3.1.0,61.47887568136281,
,,,hiragana2.xlsx,hiragana21.xlsx,hiragana22.xlsx,W,V,m,None,None,m,,,,,,,,,,,0,0,0,1,0,9,9,23,,,,,,,,,,,,,,,,,,,,,,,,,,,,,,,,,,,,,,,,,,,,,,,,,0,0,0,"[0, 0, 0, 0, 0, 0, 0, 0, 0, 0]","[0, 0, 0, 0, 0, 0, 0, 0, 0, 0]","[0, 0, 0, 0, 0, 0, 0, 0, 0, 0]",[],[],[],0.6,10,0,0,1,65.94626493891701,66.54630773852114,66.56295904377475,None,66.56295904377475,None,None,0,66.56295904377475,None,68.04640678316355,68.39678263966925,68.41305418824777,None,,,,,,,,,,,,,,,,,,,,,,,,,,,,,,,,,2019_May_27_1756,Probabilistic Learning,3.1.0,61.47887568136281,
,,,hiragana2.xlsx,hiragana21.xlsx,hiragana22.xlsx,b,o,c,None,m,None,,,,,,,,,,,0,0,0,1,0,10,10,17,,,,,,,,,,,,,,,,,,,,,,,,,,,,,,,,,,,,,,,,,,,,,,,,,0,0,0,"[0, 0, 0, 0, 0, 0, 0, 0, 0, 0]","[0, 0, 0, 0, 0, 0, 0, 0, 0, 0]","[0, 0, 0, 0, 0, 0, 0, 0, 0, 0]",[],[],[],0.8,11,0,0,1,68.99655858322512,69.79647144442424,69.8130329423584,None,69.8130329423584,None,None,0,69.8130329423584,None,71.29654636932537,71.64648499246687,71.66312603408005,None,,,,,,,,,,,,,,,,,,,,,,,,,,,,,,,,,2019_May_27_1756,Probabilistic Learning,3.1.0,61.47887568136281,
,,,hiragana2.xlsx,hiragana21.xlsx,hiragana22.xlsx,b,o,m,None,m,None,,,,,,,,,,,0,0,0,1,0,11,11,16,,,,,,,,,,,,,,,,,,,,,,,,,,,,,,,,,,,,,,,,,,,,,,,,,0,0,0,"[0, 0, 0, 0, 0, 0, 0, 0, 0, 0]","[0, 0, 0, 0, 0, 0, 0, 0, 0, 0]","[0, 0, 0, 0, 0, 0, 0, 0, 0, 0]",[],[],[],0.5,12,0,0,1,72.24675051425584,72.74658680835273,72.76322631037328,None,72.76322631037328,None,None,0,72.76322631037328,None,74.24680901737884,74.59683590824716,74.61325833317824,None,,,,,,,,,,,,,,,,,,,,,,,,,,,,,,,,,2019_May_27_1756,Probabilistic Learning,3.1.0,61.47887568136281,
,,,hiragana2.xlsx,hiragana21.xlsx,hiragana22.xlsx,b,o,c,None,m,None,,,,,,,,,,,0,0,0,1,0,12,12,18,,,,,,,,,,,,,,,,,,,,,,,,,,,,,,,,,,,,,,,,,,,,,,,,,0,0,0,"[0, 0, 0, 0, 0, 0, 0, 0, 0, 0]","[0, 0, 0, 0, 0, 0, 0, 0, 0, 0]","[0, 0, 0, 0, 0, 0, 0, 0, 0, 0]",[],[],[],0.7,13,0,0,1,75.19683457387146,75.89676211227197,75.91350989625789,None,75.91350989625789,None,None,0,75.91350989625789,None,77.39697046519723,77.74678489763755,77.76340079319198,None,,,,,,,,,,,,,,,,,,,,,,,,,,,,,,,,,2019_May_27_1756,Probabilistic Learning,3.1.0,61.47887568136281,
,,,hiragana2.xlsx,hiragana21.xlsx,hiragana22.xlsx,s,J,c,c,None,None,,,,,,,,,,,0,0,0,1,0,13,13,3,,,,,,,,,,,,,,,,,,,,,,,,,,,,,,,,,,,,,,,,,,,,,,,,,0,0,0,"[0, 0, 0, 0, 0, 0, 0, 0, 0, 0]","[0, 0, 0, 0, 0, 0, 0, 0, 0, 0]","[0, 0, 0, 0, 0, 0, 0, 0, 0, 0]",[],[],[],0.7,14,0,0,1,78.34943621535785,79.04747677326668,79.06362567073666,None,79.06362567073666,None,None,0,79.06362567073666,None,80.54696820722893,80.89690683037043,80.91343137901276,None,,,,,,,,,,,,,,,,,,,,,,,,,,,,,,,,,2019_May_27_1756,Probabilistic Learning,3.1.0,61.47887568136281,
,,,hiragana2.xlsx,hiragana21.xlsx,hiragana22.xlsx,J,s,m,m,None,None,,,,,,,,,,,0,0,0,1,0,14,14,6,,,,,,,,,,,,,,,,,,,,,,,,,,,,,,,,,,,,,,,,,,,,,,,,,0,0,0,"[0, 0, 0, 0, 0, 0, 0, 0, 0, 0]","[0, 0, 0, 0, 0, 0, 0, 0, 0, 0]","[0, 0, 0, 0, 0, 0, 0, 0, 0, 0]",[],[],[],0.8,15,0,0,1,81.49767732596956,82.2969728258904,82.31379296898376,None,82.31379296898376,None,None,0,82.31379296898376,None,83.79709188477136,84.14702024415601,84.16378496331163,None,,,,,,,,,,,,,,,,,,,,,,,,,,,,,,,,,2019_May_27_1756,Probabilistic Learning,3.1.0,61.47887568136281,
,,,hiragana2.xlsx,hiragana21.xlsx,hiragana22.xlsx,W,V,c,None,None,m,,,,,,,,,,,0,0,0,1,0,15,15,28,,,,,,,,,,,,,,,,,,,,,,,,,,,,,,,,,,,,,,,,,,,,,,,,,0,0,0,"[0, 0, 0, 0, 0, 0, 0, 0, 0, 0]","[0, 0, 0, 0, 0, 0, 0, 0, 0, 0]","[0, 0, 0, 0, 0, 0, 0, 0, 0, 0]",[],[],[],0.3,16,0,0,1,84.7472529221559,85.04713293956593,85.06413321045693,None,85.06413321045693,None,None,0,85.06413321045693,None,86.54766767809633,86.89785416936502,86.91401230415795,None,,,,,,,,,,,,,,,,,,,,,,,,,,,,,,,,,2019_May_27_1756,Probabilistic Learning,3.1.0,61.47887568136281,
,,,hiragana2.xlsx,hiragana21.xlsx,hiragana22.xlsx,s,J,m,c,None,None,,,,,,,,,,,0,0,0,1,0,16,16,8,,,,,,,,,,,,,,,,,,,,,,,,,,,,,,,,,,,,,,,,,,,,,,,,,0,0,0,"[0, 0, 0, 0, 0, 0, 0, 0, 0, 0]","[0, 0, 0, 0, 0, 0, 0, 0, 0, 0]","[0, 0, 0, 0, 0, 0, 0, 0, 0, 0]",[],[],[],0.4,17,0,0,1,87.49741149623878,87.89755806175526,87.91401743597817,None,87.91401743597817,None,None,0,87.91401743597817,None,89.39712852612138,89.74717183888424,89.76379337953404,None,,,,,,,,,,,,,,,,,,,,,,,,,,,,,,,,,2019_May_27_1756,Probabilistic Learning,3.1.0,61.47887568136281,
,,,hiragana2.xlsx,hiragana21.xlsx,hiragana22.xlsx,J,s,m,m,None,None,,,,,,,,,,,0,0,0,1,0,17,17,4,,,,,,,,,,,,,,,,,,,,,,,,,,,,,,,,,,,,,,,,,,,,,,,,,0,0,0,"[0, 0, 0, 0, 0, 0, 0, 0, 0, 0]","[0, 0, 0, 0, 0, 0, 0, 0, 0, 0]","[0, 0, 0, 0, 0, 0, 0, 0, 0, 0]",[],[],[],0.4,18,0,0,1,90.3476128699258,90.7477450662991,90.76394117681775,None,90.76394117681775,None,None,0,90.76394117681775,None,92.24750284315087,92.59759234252851,92.61412150983233,None,,,,,,,,,,,,,,,,,,,,,,,,,,,,,,,,,2019_May_27_1756,Probabilistic Learning,3.1.0,61.47887568136281,
,,,hiragana2.xlsx,hiragana21.xlsx,hiragana22.xlsx,J,s,m,m,None,None,,,,,,,,,,,0,0,0,1,0,18,18,5,,,,,,,,,,,,,,,,,,,,,,,,,,,,,,,,,,,,,,,,,,,,,,,,,0,0,0,"[0, 0, 0, 0, 0, 0, 0, 0, 0, 0]","[0, 0, 0, 0, 0, 0, 0, 0, 0, 0]","[0, 0, 0, 0, 0, 0, 0, 0, 0, 0]",[],[],[],0.8,19,0,0,1,93.19740318262484,93.99762241519056,94.0142957874341,None,94.0142957874341,None,None,0,94.0142957874341,None,95.49918968137354,95.84784226352349,95.86430112458766,None,,,,,,,,,,,,,,,,,,,,,,,,,,,,,,,,,2019_May_27_1756,Probabilistic Learning,3.1.0,61.47887568136281,
,,,hiragana2.xlsx,hiragana21.xlsx,hiragana22.xlsx,s,J,c,c,None,None,,,,,,,,,,,0,0,0,1,0,19,19,1,,,,,,,,,,,,,,,,,,,,,,,,,,,,,,,,,,,,,,,,,,,,,,,,,0,0,0,"[0, 0, 0, 0, 0, 0, 0, 0, 0, 0]","[0, 0, 0, 0, 0, 0, 0, 0, 0, 0]","[0, 0, 0, 0, 0, 0, 0, 0, 0, 0]",[],[],[],0.6,20,0,0,1,96.44809392932802,97.04784216079861,97.06429435056634,None,97.06429435056634,None,None,0,97.06429435056634,None,98.54785191139672,98.89884358958807,98.91449367150199,None,,,,,,,,,,,,,,,,,,,,,,,,,,,,,,,,,2019_May_27_1756,Probabilistic Learning,3.1.0,61.47887568136281,
,,,hiragana2.xlsx,hiragana21.xlsx,hiragana22.xlsx,s,J,c,c,None,None,,,,,,,,,,,0,0,0,1,0,20,20,0,,,,,,,,,,,,,,,,,,,,,,,,,,,,,,,,,,,,,,,,,,,,,,,,,0,0,0,"[0, 0, 0, 0, 0, 0, 0, 0, 0, 0]","[0, 0, 0, 0, 0, 0, 0, 0, 0, 0]","[0, 0, 0, 0, 0, 0, 0, 0, 0, 0]",[],[],[],0.4,21,0,0,1,99.49804579257034,99.89784955070354,99.91461786220316,None,99.91461786220316,None,None,0,99.91461786220316,None,101.39793012070004,101.74794315558393,101.76463141024578,None,,,,,,,,,,,,,,,,,,,,,,,,,,,,,,,,,2019_May_27_1756,Probabilistic Learning,3.1.0,61.47887568136281,
,,,hiragana2.xlsx,hiragana21.xlsx,hiragana22.xlsx,V,W,m,None,None,c,,,,,,,,,,,0,0,0,1,0,21,21,26,,,,,,,,,,,,,,,,,,,,,,,,,,,,,,,,,,,,,,,,,,,,,,,,,0,0,0,"[0, 0, 0, 0, 0, 0, 0, 0, 0, 0]","[0, 0, 0, 0, 0, 0, 0, 0, 0, 0]","[0, 0, 0, 0, 0, 0, 0, 0, 0, 0]",[],[],[],0.5,22,0,0,1,102.34835647465661,102.84831644617952,102.86692503816448,None,102.86692503816448,None,None,0,102.86692503816448,None,104.3480634461157,104.69856451964006,104.71484376606531,None,,,,,,,,,,,,,,,,,,,,,,,,,,,,,,,,,2019_May_27_1756,Probabilistic Learning,3.1.0,61.47887568136281,
,,,hiragana2.xlsx,hiragana21.xlsx,hiragana22.xlsx,b,o,m,None,m,None,,,,,,,,,,,0,0,0,1,0,22,22,14,,,,,,,,,,,,,,,,,,,,,,,,,,,,,,,,,,,,,,,,,,,,,,,,,0,0,0,"[0, 0, 0, 0, 0, 0, 0, 0, 0, 0]","[0, 0, 0, 0, 0, 0, 0, 0, 0, 0]","[0, 0, 0, 0, 0, 0, 0, 0, 0, 0]",[],[],[],0.5,23,0,0,1,105.2999149140669,105.79824141855352,105.81479521887377,None,105.81479521887377,None,None,0,105.81479521887377,None,107.29825989319943,107.64820518775377,107.6649591299938,None,,,,,,,,,,,,,,,,,,,,,,,,,,,,,,,,,2019_May_27_1756,Probabilistic Learning,3.1.0,61.47887568136281,
,,,hiragana2.xlsx,hiragana21.xlsx,hiragana22.xlsx,o,b,c,None,c,None,,,,,,,,,,,0,0,0,1,0,23,23,11,,,,,,,,,,,,,,,,,,,,,,,,,,,,,,,,,,,,,,,,,,,,,,,,,0,0,0,"[0, 0, 0, 0, 0, 0, 0, 0, 0, 0]","[0, 0, 0, 0, 0, 0, 0, 0, 0, 0]","[0, 0, 0, 0, 0, 0, 0, 0, 0, 0]",[],[],[],0.7,24,0,0,1,108.25096273468807,108.94832537556067,108.96498951059766,None,108.96498951059766,None,None,0,108.96498951059766,None,110.44836745678913,110.79840512457304,110.81503949477337,None,,,,,,,,,,,,,,,,,,,,,,,,,,,,,,,,,2019_May_27_1756,Probabilistic Learning,3.1.0,61.47887568136281,
,,,hiragana2.xlsx,hiragana21.xlsx,hiragana22.xlsx,o,b,m,None,c,None,,,,,,,,,,,0,0,0,1,0,24,24,19,,,,,,,,,,,,,,,,,,,,,,,,,,,,,,,,,,,,,,,,,,,,,,,,,0,0,0,"[0, 0, 0, 0, 0, 0, 0, 0, 0, 0]","[0, 0, 0, 0, 0, 0, 0, 0, 0, 0]","[0, 0, 0, 0, 0, 0, 0, 0, 0, 0]",[],[],[],0.7,25,0,0,1,111.3983545245137,112.09854789252859,112.11550043732859,None,112.11550043732859,None,None,0,112.11550043732859,None,113.598811669508,113.94857786246575,113.96626734058373,None,,,,,,,,,,,,,,,,,,,,,,,,,,,,,,,,,2019_May_27_1756,Probabilistic Learning,3.1.0,61.47887568136281,
,,,hiragana2.xlsx,hiragana21.xlsx,hiragana22.xlsx,b,o,m,None,m,None,,,,,,,,,,,0,0,0,1,0,25,25,15,,,,,,,,,,,,,,,,,,,,,,,,,,,,,,,,,,,,,,,,,,,,,,,,,0,0,0,"[0, 0, 0, 0, 0, 0, 0, 0, 0, 0]","[0, 0, 0, 0, 0, 0, 0, 0, 0, 0]","[0, 0, 0, 0, 0, 0, 0, 0, 0, 0]",[],[],[],0.4,26,0,0,1,114.54885210841894,114.9486517610494,114.9656982186716,None,114.9656982186716,None,None,0,114.9656982186716,None,116.44900123996194,116.79866684868466,116.81528684985824,None,,,,,,,,,,,,,,,,,,,,,,,,,,,,,,,,,2019_May_27_1756,Probabilistic Learning,3.1.0,61.47887568136281,
,,,hiragana2.xlsx,hiragana21.xlsx,hiragana22.xlsx,J,s,m,m,None,None,,,,,,,,,,,0,0,0,1,0,26,26,7,,,,,,,,,,,,,,,,,,,,,,,,,,,,,,,,,,,,,,,,,,,,,,,,,0,0,0,"[0, 0, 0, 0, 0, 0, 0, 0, 0, 0]","[0, 0, 0, 0, 0, 0, 0, 0, 0, 0]","[0, 0, 0, 0, 0, 0, 0, 0, 0, 0]",[],[],[],0.5,27,0,0,1,117.39937165670563,117.89886616973672,117.91545435332227,None,117.91545435332227,None,None,0,117.91545435332227,None,119.39873068896122,119.74927025137004,119.7654324916657,None,,,,,,,,,,,,,,,,,,,,,,,,,,,,,,,,,2019_May_27_1756,Probabilistic Learning,3.1.0,61.47887568136281,
,,,hiragana2.xlsx,hiragana21.xlsx,hiragana22.xlsx,o,b,c,None,c,None,,,,,,,,,,,0,0,0,1,0,27,27,13,,,,,,,,,,,,,,,,,,,,,,,,,,,,,,,,,,,,,,,,,,,,,,,,,0,0,0,"[0, 0, 0, 0, 0, 0, 0, 0, 0, 0]","[0, 0, 0, 0, 0, 0, 0, 0, 0, 0]","[0, 0, 0, 0, 0, 0, 0, 0, 0, 0]",[],[],[],0.5,28,0,0,1,120.35150178393815,120.84890917455778,120.86554046568926,None,120.86554046568926,None,None,0,120.86554046568926,None,122.3494782964699,122.69896275107749,122.7159568638308,None,,,,,,,,,,,,,,,,,,,,,,,,,,,,,,,,,2019_May_27_1756,Probabilistic Learning,3.1.0,61.47887568136281,
,,,hiragana2.xlsx,hiragana21.xlsx,hiragana22.xlsx,V,W,c,None,None,c,,,,,,,,,,,0,0,0,1,0,28,28,22,,,,,,,,,,,,,,,,,,,,,,,,,,,,,,,,,,,,,,,,,,,,,,,,,0,0,0,"[0, 0, 0, 0, 0, 0, 0, 0, 0, 0]","[0, 0, 0, 0, 0, 0, 0, 0, 0, 0]","[0, 0, 0, 0, 0, 0, 0, 0, 0, 0]",[],[],[],0.3,29,0,0,1,123.2993801755365,123.59907698596362,123.61564772133715,None,123.61564772133715,None,None,0,123.61564772133715,None,125.09913702856284,125.44952982023824,125.46573311521206,None,,,,,,,,,,,,,,,,,,,,,,,,,,,,,,,,,2019_May_27_1756,Probabilistic Learning,3.1.0,61.47887568136281,
,,,hiragana2.xlsx,hiragana21.xlsx,hiragana22.xlsx,V,W,c,None,None,c,,,,,,,,,,,0,0,0,1,0,29,29,21,,,,,,,,,,,,,,,,,,,,,,,,,,,,,,,,,,,,,,,,,,,,,,,,,0,0,0,"[0, 0, 0, 0, 0, 0, 0, 0, 0, 0]","[0, 0, 0, 0, 0, 0, 0, 0, 0, 0]","[0, 0, 0, 0, 0, 0, 0, 0, 0, 0]",[],[],[],0.3,30,0,0,1,126.04916309833061,126.34924685012084,126.36584427102935,None,126.36584427102935,None,None,0,126.36584427102935,None,127.84952858858742,128.19958473101724,128.21632481727283,None,,,,,,,,,,,,,,,,,,,,,,,,,,,,,,,,,2019_May_27_1756,Probabilistic Learning,3.1.0,61.47887568136281,
,,,hiragana2.xlsx,hiragana21.xlsx,hiragana22.xlsx,o,b,c,None,c,None,,,,,,,,,,,0,0,0,1,1,0,30,11,,,,,,,,,,,,,,,,,,,,,,,,,,,,,,,,,,,,,,,,,,,,,,,,,0,0,0,"[0, 0, 0, 0, 0, 0, 0, 0, 0, 0]","[0, 0, 0, 0, 0, 0, 0, 0, 0, 0]","[0, 0, 0, 0, 0, 0, 0, 0, 0, 0]",[],[],[],0.8,31,0,0,1,128.79962393827736,129.59933357837144,129.61599412106443,None,129.61599412106443,None,None,0,129.61599412106443,None,131.09956451144535,131.44940049760044,131.4662888942985,None,,,,,,,,,,,,,,,,,,,,,,,,,,,,,,,,,2019_May_27_1756,Probabilistic Learning,3.1.0,61.47887568136281,
,,,hiragana2.xlsx,hiragana21.xlsx,hiragana22.xlsx,W,V,c,None,None,m,,,,,,,,,,,0,0,0,1,1,1,31,28,,,,,,,,,,,,,,,,,,,,,,,,,,,,,,,,,,,,,,,,,,,,,,,,,0,0,0,"[0, 0, 0, 0, 0, 0, 0, 0, 0, 0]","[0, 0, 0, 0, 0, 0, 0, 0, 0, 0]","[0, 0, 0, 0, 0, 0, 0, 0, 0, 0]",[],[],[],0.8,32,0,0,1,132.0497989342548,132.84952448308468,132.8662050398998,None,132.8662050398998,None,None,0,132.8662050398998,None,134.34985035541467,134.69954624213278,134.71667429606896,None,,,,,,,,,,,,,,,,,,,,,,,,,,,,,,,,,2019_May_27_1756,Probabilistic Learning,3.1.0,61.47887568136281,
,,,hiragana2.xlsx,hiragana21.xlsx,hiragana22.xlsx,b,o,c,None,m,None,,,,,,,,,,,0,0,0,1,1,2,32,17,,,,,,,,,,,,,,,,,,,,,,,,,,,,,,,,,,,,,,,,,,,,,,,,,0,1,0,"[0, 0, 0, 0, 0, 0, 0, 0, 0, 0]","[0, 0, 0, 0, 0, 0, 0, 0, 0, 0]","[0, 0, 0, 0, 0, 0, 0, 0, 0, 0]",[],[],[],0.8,33,0,0,1,135.29970656102523,136.09975592943374,136.1162732935045,None,136.1162732935045,None,m,0,136.1162732935045,None,136.8178430229891,137.1664437734289,137.18305402400438,None,0.6840634583495557,,,,,,,,,,,,,,,,,,,,,,,,,,,,,,,,2019_May_27_1756,Probabilistic Learning,3.1.0,61.47887568136281,
,,,hiragana2.xlsx,hiragana21.xlsx,hiragana22.xlsx,J,s,m,m,None,None,,,,,,,,,,,0,0,0,1,1,3,33,7,,,,,,,,,,,,,,,,,,,,,,,,,,,,,,,,,,,,,,,,,,,,,,,,,1,0,0,"[0, 0, 0, 0, 0, 0, 0, 0, 0, 0]","[0, 0, 0, 0, 0, 0, 0, 0, 0, 0]","[0, 0, 0, 0, 0, 0, 0, 0, 0, 0]",[],[],[],0.7,34,0,0,1,137.7667205852922,138.46688624133822,138.48321783263236,None,138.48321783263236,None,m,1,138.48321783263236,None,138.9500517291017,139.29982048808597,139.316464608768,None,0.45044790767133236,,,,,,,,,,,,,,,,,,,,,,,,,,,,,,,,2019_May_27_1756,Probabilistic Learning,3.1.0,61.47887568136281,
,,,hiragana2.xlsx,hiragana21.xlsx,hiragana22.xlsx,o,b,c,None,c,None,,,,,,,,,,,0,0,0,1,1,4,34,13,,,,,,,,,,,,,,,,,,,,,,,,,,,,,,,,,,,,,,,,,,,,,,,,,0,1,0,"[0, 0, 0, 0, 0, 0, 0, 0, 0, 0]","[0, 0, 0, 0, 0, 0, 0, 0, 0, 0]","[0, 0, 0, 0, 0, 0, 0, 0, 0, 0]",[],[],[],0.3,35,0,0,1,139.90002904634457,140.19980386085808,140.2166296490468,None,140.2166296490468,None,c,1,140.2166296490468,None,140.64987765683327,140.99991429818328,141.01658048585523,None,0.4171535079367459,,,,,,,,,,,,,,,,,,,,,,,,,,,,,,,,2019_May_27_1756,Probabilistic Learning,3.1.0,61.47887568136281,
,,,hiragana2.xlsx,hiragana21.xlsx,hiragana22.xlsx,W,V,m,None,None,m,,,,,,,,,,,0,0,0,1,1,5,35,23,,,,,,,,,,,,,,,,,,,,,,,,,,,,,,,,,,,,,,,,,,,,,,,,,0,0,1,"[0, 0, 0, 0, 0, 0, 0, 0, 0, 0]","[0, 0, 0, 0, 0, 0, 0, 0, 0, 0]","[0, 0, 0, 0, 0, 0, 0, 0, 0, 0]",[],[],[],0.6,36,0,0,1,141.60030401067343,142.19997475133277,142.2166881520534,None,142.2166881520534,None,m,1,142.2166881520534,None,142.56635427405126,142.91687176958658,142.9333034318406,None,0.33379947615321726,,,,,,,,,,,,,,,,,,,,,,,,,,,,,,,,2019_May_27_1756,Probabilistic Learning,3.1.0,61.47887568136281,
,,,hiragana2.xlsx,hiragana21.xlsx,hiragana22.xlsx,s,J,m,c,None,None,,,,,,,,,,,0,0,0,1,1,6,36,8,,,,,,,,,,,,,,,,,,,,,,,,,,,,,,,,,,,,,,,,,,,,,,,,,1,0,0,"[0, 0, 0, 0, 0, 0, 0, 0, 0, 0]","[0, 0, 0, 0, 0, 0, 0, 0, 0, 0]","[0, 0, 0, 0, 0, 0, 0, 0, 0, 0]",[],[],[],0.8,37,0,0,1,143.51772950659506,144.3166514079785,144.33332734624855,None,144.33332734624855,None,c,0,144.33332734624855,None,144.86820184183307,145.21677539346274,145.23408100940287,None,0.5185901173390448,,,,,,,,,,,,,,,,,,,,,,,,,,,,,,,,2019_May_27_1756,Probabilistic Learning,3.1.0,61.47887568136281,
,,,hiragana2.xlsx,hiragana21.xlsx,hiragana22.xlsx,b,o,m,None,m,None,,,,,,,,,,,0,0,0,1,1,7,37,15,,,,,,,,,,,,,,,,,,,,,,,,,,,,,,,,,,,,,,,,,,,,,,,,,0,1,0,"[0, 0, 0, 0, 0, 0, 0, 0, 0, 0]","[0, 0, 0, 0, 0, 0, 0, 0, 0, 0]","[0, 0, 0, 0, 0, 0, 0, 0, 0, 0]",[],[],[],0.4,38,0,0,1,145.81700396595988,146.21688316226937,146.2333307332592,None,146.2333307332592,None,m,1,146.2333307332592,None,146.70030986098573,147.05017355910968,147.06806574517395,None,0.45055516331922263,,,,,,,,,,,,,,,,,,,,,,,,,,,,,,,,2019_May_27_1756,Probabilistic Learning,3.1.0,61.47887568136281,
,,,hiragana2.xlsx,hiragana21.xlsx,hiragana22.xlsx,J,s,m,m,None,None,,,,,,,,,,,0,0,0,1,1,8,38,6,,,,,,,,,,,,,,,,,,,,,,,,,,,,,,,,,,,,,,,,,,,,,,,,,1,0,0,"[0, 0, 0, 0, 0, 0, 0, 0, 0, 0]","[0, 0, 0, 0, 0, 0, 0, 0, 0, 0]","[0, 0, 0, 0, 0, 0, 0, 0, 0, 0]",[],[],[],0.8,39,0,0,1,147.65022559603676,148.45044790767133,148.46755594748538,None,148.46755594748538,None,m,1,148.46755594748538,None,148.85034660506062,149.20067524851765,149.217203389504,None,0.36685524496715516,,,,,,,,,,,,,,,,,,,,,,,,,,,,,,,,2019_May_27_1756,Probabilistic Learning,3.1.0,61.47887568136281,
,,,hiragana2.xlsx,hiragana21.xlsx,hiragana22.xlsx,V,W,m,None,None,c,,,,,,,,,,,0,0,0,1,1,9,39,27,,,,,,,,,,,,,,,,,,,,,,,,,,,,,,,,,,,,,,,,,,,,,,,,,0,0,1,"[0, 0, 0, 0, 0, 0, 0, 0, 0, 0]","[0, 0, 0, 0, 0, 0, 0, 0, 0, 0]","[0, 0, 0, 0, 0, 0, 0, 0, 0, 0]",[],[],[],0.6,40,0,0,1,149.8005399730755,150.40036826138385,150.41708782035857,None,150.41708782035857,None,c,0,150.41708782035857,None,150.80029005208053,151.1502979551442,151.16708166210447,None,0.36690348433330655,,,,,,,,,,,,,,,,,,,,,,,,,,,,,,,,2019_May_27_1756,Probabilistic Learning,3.1.0,61.47887568136281,
,,,hiragana2.xlsx,hiragana21.xlsx,hiragana22.xlsx,W,V,m,None,None,m,,,,,,,,,,,0,0,0,1,1,10,40,24,,,,,,,,,,,,,,,,,,,,,,,,,,,,,,,,,,,,,,,,,,,,,,,,,0,0,1,"[0, 0, 0, 0, 0, 0, 0, 0, 0, 0]","[0, 0, 0, 0, 0, 0, 0, 0, 0, 0]","[0, 0, 0, 0, 0, 0, 0, 0, 0, 0]",[],[],[],0.3,41,0,0,1,151.75347836629953,152.05042861192487,152.06702346692327,None,152.06702346692327,None,m,1,152.06702346692327,None,152.45058082253672,152.80044195475057,152.81708915461786,None,0.36705436068587005,,,,,,,,,,,,,,,,,,,,,,,,,,,,,,,,2019_May_27_1756,Probabilistic Learning,3.1.0,61.47887568136281,
,,,hiragana2.xlsx,hiragana21.xlsx,hiragana22.xlsx,J,s,m,m,None,None,,,,,,,,,,,0,0,0,1,1,11,41,5,,,,,,,,,,,,,,,,,,,,,,,,,,,,,,,,,,,,,,,,,,,,,,,,,0,0,0,"[0, 0, 0, 0, 0, 0, 0, 0, 0, 0]","[0, 0, 0, 0, 0, 0, 0, 0, 0, 0]","[0, 0, 0, 0, 0, 0, 0, 0, 0, 0]",[],[],[],0.5,42,0,0,1,153.40075366315432,153.90066077676602,153.91729309421498,None,153.91729309421498,None,c,0,153.91729309421498,None,154.26736103987787,154.61723140941467,154.63390067627188,None,0.3336958127329126,,,,,,,,,,,,,,,,,,,,,,,,,,,,,,,,2019_May_27_1756,Probabilistic Learning,3.1.0,61.47887568136281,
,,,hiragana2.xlsx,hiragana21.xlsx,hiragana22.xlsx,s,J,c,c,None,None,,,,,,,,,,,0,0,0,1,1,12,42,0,,,,,,,,,,,,,,,,,,,,,,,,,,,,,,,,,,,,,,,,,,,,,,,,,1,0,0,"[0, 0, 0, 0, 0, 0, 0, 0, 0, 0]","[0, 0, 0, 0, 0, 0, 0, 0, 0, 0]","[0, 0, 0, 0, 0, 0, 0, 0, 0, 0]",[],[],[],0.7,43,0,0,1,155.2174379149219,155.91727461956907,155.93379916832782,None,155.93379916832782,None,c,1,155.93379916832782,None,156.30105828959495,156.65063563070726,156.66738136205822,None,0.3509685848839581,,,,,,,,,,,,,,,,,,,,,,,,,,,,,,,,2019_May_27_1756,Probabilistic Learning,3.1.0,61.47887568136281,
,,,hiragana2.xlsx,hiragana21.xlsx,hiragana22.xlsx,J,s,c,m,None,None,,,,,,,,,,,0,0,0,1,1,13,43,9,,,,,,,,,,,,,,,,,,,,,,,,,,,,,,,,,,,,,,,,,,,,,,,,,1,0,0,"[0, 0, 0, 0, 0, 0, 0, 0, 0, 0]","[0, 0, 0, 0, 0, 0, 0, 0, 0, 0]","[0, 0, 0, 0, 0, 0, 0, 0, 0, 0]",[],[],[],0.8,44,0,0,1,157.25114850746468,158.05078219622374,158.067408355535,None,158.067408355535,None,m,0,158.067408355535,None,158.48379157320596,158.83400988194626,158.8512241509743,None,0.40009627351537347,,,,,,,,,,,,,,,,,,,,,,,,,,,,,,,,2019_May_27_1756,Probabilistic Learning,3.1.0,61.47887568136281,
,,,hiragana2.xlsx,hiragana21.xlsx,hiragana22.xlsx,V,W,c,None,None,c,,,,,,,,,,,0,0,0,1,1,14,44,20,,,,,,,,,,,,,,,,,,,,,,,,,,,,,,,,,,,,,,,,,,,,,,,,,0,0,0,"[0, 0, 0, 0, 0, 0, 0, 0, 0, 0]","[0, 0, 0, 0, 0, 0, 0, 0, 0, 0]","[0, 0, 0, 0, 0, 0, 0, 0, 0, 0]",[],[],[],0.3,45,0,0,1,159.4346962152049,159.73388651234563,159.7506296777865,None,159.7506296777865,None,m,0,159.7506296777865,None,160.2175646716496,160.56743093568366,160.5842351700412,None,0.4528203607769683,,,,,,,,,,,,,,,,,,,,,,,,,,,,,,,,2019_May_27_1756,Probabilistic Learning,3.1.0,61.47887568136281,
,,,hiragana2.xlsx,hiragana21.xlsx,hiragana22.xlsx,V,W,m,None,None,c,,,,,,,,,,,0,0,0,1,1,15,45,26,,,,,,,,,,,,,,,,,,,,,,,,,,,,,,,,,,,,,,,,,,,,,,,,,0,0,1,"[0, 0, 0, 0, 0, 0, 0, 0, 0, 0]","[0, 0, 0, 0, 0, 0, 0, 0, 0, 0]","[0, 0, 0, 0, 0, 0, 0, 0, 0, 0]",[],[],[],0.7,46,0,0,1,161.16792893013917,161.86760346835945,161.8842060212046,None,161.8842060212046,None,c,0,161.8842060212046,None,162.26744160987437,162.61793960432988,162.63411775336135,None,0.3669388940325007,,,,,,,,,,,,,,,,,,,,,,,,,,,,,,,,2019_May_27_1756,Probabilistic Learning,3.1.0,61.47887568136281,
,,,hiragana2.xlsx,hiragana21.xlsx,hiragana22.xlsx,b,o,m,None,m,None,,,,,,,,,,,0,0,0,1,1,16,46,16,,,,,,,,,,,,,,,,,,,,,,,,,,,,,,,,,,,,,,,,,,,,,,,,,0,1,0,"[0, 0, 0, 0, 0, 0, 0, 0, 0, 0]","[0, 0, 0, 0, 0, 0, 0, 0, 0, 0]","[0, 0, 0, 0, 0, 0, 0, 0, 0, 0]",[],[],[],0.4,47,0,0,1,163.21756415837444,163.617564979475,163.6342563132057,None,163.6342563132057,None,m,1,163.6342563132057,None,164.1675994655816,164.5176130136242,164.53436746902298,None,0.5176597133977339,,,,,,,,,,,,,,,,,,,,,,,,,,,,,,,,2019_May_27_1756,Probabilistic Learning,3.1.0,61.47887568136281,
,,,hiragana2.xlsx,hiragana21.xlsx,hiragana22.xlsx,V,W,c,None,None,c,,,,,,,,,,,0,0,0,1,1,17,47,22,,,,,,,,,,,,,,,,,,,,,,,,,,,,,,,,,,,,,,,,,,,,,,,,,0,0,1,"[0, 0, 0, 0, 0, 0, 0, 0, 0, 0]","[0, 0, 0, 0, 0, 0, 0, 0, 0, 0]","[0, 0, 0, 0, 0, 0, 0, 0, 0, 0]",[],[],[],0.5,48,0,0,1,165.11846151330974,165.6177589633735,165.6343343172921,None,165.6343343172921,None,c,1,165.6343343172921,None,166.15104053344112,166.50104638375342,166.5177520866273,None,0.5002576187252998,,,,,,,,,,,,,,,,,,,,,,,,,,,,,,,,2019_May_27_1756,Probabilistic Learning,3.1.0,61.47887568136281,
,,,hiragana2.xlsx,hiragana21.xlsx,hiragana22.xlsx,s,J,c,c,None,None,,,,,,,,,,,0,0,0,1,1,18,48,3,,,,,,,,,,,,,,,,,,,,,,,,,,,,,,,,,,,,,,,,,,,,,,,,,1,0,0,"[0, 0, 0, 0, 0, 0, 0, 0, 0, 0]","[0, 0, 0, 0, 0, 0, 0, 0, 0, 0]","[0, 0, 0, 0, 0, 0, 0, 0, 0, 0]",[],[],[],0.5,49,0,0,1,167.10156182653736,167.60135296033695,167.61782824329566,None,167.61782824329566,None,c,1,167.61782824329566,None,168.13430044718552,168.48430681065656,168.50116544263437,None,0.5000472129322588,,,,,,,,,,,,,,,,,,,,,,,,,,,,,,,,2019_May_27_1756,Probabilistic Learning,3.1.0,61.47887568136281,
,,,hiragana2.xlsx,hiragana21.xlsx,hiragana22.xlsx,s,J,c,c,None,None,,,,,,,,,,,0,0,0,1,1,19,49,2,,,,,,,,,,,,,,,,,,,,,,,,,,,,,,,,,,,,,,,,,,,,,,,,,1,0,0,"[0, 0, 0, 0, 0, 0, 0, 0, 0, 0]","[0, 0, 0, 0, 0, 0, 0, 0, 0, 0]","[0, 0, 0, 0, 0, 0, 0, 0, 0, 0]",[],[],[],0.5,50,0,0,1,169.08463134861086,169.58463340136223,169.601559773786,None,169.601559773786,None,c,1,169.601559773786,None,170.01792605628725,170.36831884784624,170.3845149583649,None,0.399997228756547,,,,,,,,,,,,,,,,,,,,,,,,,,,,,,,,2019_May_27_1756,Probabilistic Learning,3.1.0,61.47887568136281,
,,,hiragana2.xlsx,hiragana21.xlsx,hiragana22.xlsx,b,o,m,None,m,None,,,,,,,,,,,0,0,0,1,1,20,50,14,,,,,,,,,,,,,,,,,,,,,,,,,,,,,,,,,,,,,,,,,,,,,,,,,0,1,0,"[0, 0, 0, 0, 0, 0, 0, 0, 0, 0]","[0, 0, 0, 0, 0, 0, 0, 0, 0, 0]","[0, 0, 0, 0, 0, 0, 0, 0, 0, 0]",[],[],[],0.6,51,0,0,1,170.96793570416048,171.5679061447736,171.58465957385488,None,171.58465957385488,None,m,1,171.58465957385488,None,172.13464428088628,172.4848410359118,172.5012803960126,None,0.535295306937769,,,,,,,,,,,,,,,,,,,,,,,,,,,,,,,,2019_May_27_1756,Probabilistic Learning,3.1.0,61.47887568136281,
,,,hiragana2.xlsx,hiragana21.xlsx,hiragana22.xlsx,W,V,m,None,None,m,,,,,,,,,,,0,0,0,1,1,21,51,25,,,,,,,,,,,,,,,,,,,,,,,,,,,,,,,,,,,,,,,,,,,,,,,,,0,0,1,"[0, 0, 0, 0, 0, 0, 0, 0, 0, 0]","[0, 0, 0, 0, 0, 0, 0, 0, 0, 0]","[0, 0, 0, 0, 0, 0, 0, 0, 0, 0]",[],[],[],0.6,52,0,0,1,173.08500238123816,173.68468338565435,173.70138190395664,None,173.70138190395664,None,m,1,173.70138190395664,None,174.21816971641965,174.5681042340584,174.58478119864594,None,0.5005018946249038,,,,,,,,,,,,,,,,,,,,,,,,,,,,,,,,2019_May_27_1756,Probabilistic Learning,3.1.0,61.47887568136281,
,,,hiragana2.xlsx,hiragana21.xlsx,hiragana22.xlsx,o,b,m,None,c,None,,,,,,,,,,,0,0,0,1,1,22,52,19,,,,,,,,,,,,,,,,,,,,,,,,,,,,,,,,,,,,,,,,,,,,,,,,,0,1,0,"[0, 0, 0, 0, 0, 0, 0, 0, 0, 0]","[0, 0, 0, 0, 0, 0, 0, 0, 0, 0]","[0, 0, 0, 0, 0, 0, 0, 0, 0, 0]",[],[],[],0.6,53,0,0,1,175.16842671937775,175.76816622680053,175.7847949519055,None,175.7847949519055,None,c,0,175.7847949519055,None,176.319991727476,176.66828405391425,176.68488352769054,None,0.5191443568328395,,,,,,,,,,,,,,,,,,,,,,,,,,,,,,,,2019_May_27_1756,Probabilistic Learning,3.1.0,61.47887568136281,
,,,hiragana2.xlsx,hiragana21.xlsx,hiragana22.xlsx,W,V,c,None,None,m,,,,,,,,,,,0,0,0,1,1,23,53,29,,,,,,,,,,,,,,,,,,,,,,,,,,,,,,,,,,,,,,,,,,,,,,,,,0,0,1,"[0, 0, 0, 0, 0, 0, 0, 0, 0, 0]","[0, 0, 0, 0, 0, 0, 0, 0, 0, 0]","[0, 0, 0, 0, 0, 0, 0, 0, 0, 0]",[],[],[],0.8,54,0,0,1,177.26819342549425,178.06860766827594,178.08537341374904,None,178.08537341374904,None,m,0,178.08537341374904,None,178.5682653740514,178.91838155908044,178.9349892437458,None,0.4665911600459367,,,,,,,,,,,,,,,,,,,,,,,,,,,,,,,,2019_May_27_1756,Probabilistic Learning,3.1.0,61.47887568136281,
,,,hiragana2.xlsx,hiragana21.xlsx,hiragana22.xlsx,s,J,c,c,None,None,,,,,,,,,,,0,0,0,1,1,24,54,1,,,,,,,,,,,,,,,,,,,,,,,,,,,,,,,,,,,,,,,,,,,,,,,,,1,0,0,"[0, 0, 0, 0, 0, 0, 0, 0, 0, 0]","[0, 0, 0, 0, 0, 0, 0, 0, 0, 0]","[0, 0, 0, 0, 0, 0, 0, 0, 0, 0]",[],[],[],0.5,55,0,0,1,179.5187030179659,180.01840177853592,180.03531121579,None,180.03531121579,None,c,1,180.03531121579,None,180.5354908304289,180.88531757926103,180.90173538553063,None,0.48333227273542434,,,,,,,,,,,,,,,,,,,,,,,,,,,,,,,,2019_May_27_1756,Probabilistic Learning,3.1.0,61.47887568136281,
,,,hiragana2.xlsx,hiragana21.xlsx,hiragana22.xlsx,V,W,c,None,None,c,,,,,,,,,,,0,0,0,1,1,25,55,21,,,,,,,,,,,,,,,,,,,,,,,,,,,,,,,,,,,,,,,,,,,,,,,,,0,0,1,"[0, 0, 0, 0, 0, 0, 0, 0, 0, 0]","[0, 0, 0, 0, 0, 0, 0, 0, 0, 0]","[0, 0, 0, 0, 0, 0, 0, 0, 0, 0]",[],[],[],0.7,56,0,0,1,181.48533831199165,182.18523608555552,182.20192074787337,None,182.20192074787337,None,c,1,182.20192074787337,None,182.668583753868,183.01856291852891,183.03524963359814,None,0.4501271671615541,,,,,,,,,,,,,,,,,,,,,,,,,,,,,,,,2019_May_27_1756,Probabilistic Learning,3.1.0,61.47887568136281,
,,,hiragana2.xlsx,hiragana21.xlsx,hiragana22.xlsx,J,s,m,m,None,None,,,,,,,,,,,0,0,0,1,1,26,56,4,,,,,,,,,,,,,,,,,,,,,,,,,,,,,,,,,,,,,,,,,,,,,,,,,1,0,0,"[0, 0, 0, 0, 0, 0, 0, 0, 0, 0]","[0, 0, 0, 0, 0, 0, 0, 0, 0, 0]","[0, 0, 0, 0, 0, 0, 0, 0, 0, 0]",[],[],[],0.6,57,0,0,1,183.61939756223,184.2185879619792,184.23526287381537,None,184.23526287381537,None,m,1,184.23526287381537,None,184.73522849043366,185.08531850308646,185.1021140132798,None,0.48362273536622524,,,,,,,,,,,,,,,,,,,,,,,,,,,,,,,,2019_May_27_1756,Probabilistic Learning,3.1.0,61.47887568136281,
,,,hiragana2.xlsx,hiragana21.xlsx,hiragana22.xlsx,o,b,c,None,c,None,,,,,,,,,,,0,0,0,1,1,27,57,12,,,,,,,,,,,,,,,,,,,,,,,,,,,,,,,,,,,,,,,,,,,,,,,,,0,1,0,"[0, 0, 0, 0, 0, 0, 0, 0, 0, 0]","[0, 0, 0, 0, 0, 0, 0, 0, 0, 0]","[0, 0, 0, 0, 0, 0, 0, 0, 0, 0]",[],[],[],0.5,58,0,0,1,185.6858426699182,186.18521658459213,186.2024934621295,None,186.2024934621295,None,c,1,186.2024934621295,None,186.86902088462375,187.21922841656487,187.2353937359294,None,0.6512365699745715,,,,,,,,,,,,,,,,,,,,,,,,,,,,,,,,2019_May_27_1756,Probabilistic Learning,3.1.0,61.47887568136281,
,,,hiragana2.xlsx,hiragana21.xlsx,hiragana22.xlsx,o,b,c,None,c,None,,,,,,,,,,,0,0,0,1,1,28,58,10,,,,,,,,,,,,,,,,,,,,,,,,,,,,,,,,,,,,,,,,,,,,,,,,,0,1,0,"[0, 0, 0, 0, 0, 0, 0, 0, 0, 0]","[0, 0, 0, 0, 0, 0, 0, 0, 0, 0]","[0, 0, 0, 0, 0, 0, 0, 0, 0, 0]",[],[],[],0.7,59,0,0,1,187.81872518756427,188.5187630605651,188.53542309009936,None,188.53542309009936,None,c,1,188.53542309009936,None,189.01877332432196,189.36888437753078,189.38556903984863,None,0.4670176166109741,,,,,,,,,,,,,,,,,,,,,,,,,,,,,,,,2019_May_27_1756,Probabilistic Learning,3.1.0,61.47887568136281,
,,,hiragana2.xlsx,hiragana21.xlsx,hiragana22.xlsx,b,o,c,None,m,None,,,,,,,,,,,0,0,0,1,1,29,59,18,,,,,,,,,,,,,,,,,,,,,,,,,,,,,,,,,,,,,,,,,,,,,,,,,0,1,0,"[0, 0, 0, 0, 0, 0, 0, 0, 0, 0]","[0, 0, 0, 0, 0, 0, 0, 0, 0, 0]","[0, 0, 0, 0, 0, 0, 0, 0, 0, 0]",[],[],[],0.6,60,0,0,1,189.9692042968236,190.56888632755727,190.58554225158878,None,190.58554225158878,None,m,0,190.58554225158878,None,191.10227720602416,191.45233694068156,191.46890716289636,None,0.5005398703506216,,,,,,,,,,,,,,,,,,,,,,,,,,,,,,,,2019_May_27_1756,Probabilistic Learning,3.1.0,61.47887568136281,
,,,hiragana2.xlsx,hiragana21.xlsx,hiragana22.xlsx,b,o,c,None,m,None,,,,,,,,,,,0,0,0,1,2,0,60,18,,,,,,,,,,,,,,,,,,,,,,,,,,,,,,,,,,,,,,,,,,,,,,,,,0,1,0,"[0, 0, 0, 0, 0, 0, 0, 0, 0, 0]","[0, 0, 0, 0, 0, 0, 0, 0, 0, 0]","[0, 0, 0, 0, 0, 0, 0, 0, 0, 0]",[],[],[],0.4,61,0,0,1,192.0523540810682,192.4523482307559,192.46899645705707,None,192.46899645705707,None,m,0,192.46899645705707,None,193.1699621680891,193.51896114996634,193.5356519705383,None,0.6840901440009475,,,,,,,,,,,,,,,,,,,,,,,,,,,,,,,,2019_May_27_1756,Probabilistic Learning,3.1.0,61.47887568136281,
,,,hiragana2.xlsx,hiragana21.xlsx,hiragana22.xlsx,s,J,m,c,None,None,,,,,,,,,,,0,0,0,1,2,1,61,8,,,,,,,,,,,,,,,,,,,,,,,,,,,,,,,,,,,,,,,,,,,,,,,,,1,0,0,"[0, 0, 0, 0, 0, 0, 0, 0, 0, 0]","[0, 0, 0, 0, 0, 0, 0, 0, 0, 0]","[0, 0, 0, 0, 0, 0, 0, 0, 0, 0]",[],[],[],0.5,62,0,0,1,194.11975114652887,194.61967981385533,194.63586360786576,None,194.63586360786576,None,c,0,194.63586360786576,None,195.05252856388688,195.40237994561903,195.41944898338988,None,0.400436001829803,,,,,,,,,,,,,,,,,,,,,,,,,,,,,,,,2019_May_27_1756,Probabilistic Learning,3.1.0,61.47887568136281,
,,,hiragana2.xlsx,hiragana21.xlsx,hiragana22.xlsx,V,W,c,None,None,c,,,,,,,,,,,0,0,0,1,2,2,62,22,,,,,,,,,,,,,,,,,,,,,,,,,,,,,,,,,,,,,,,,,,,,,,,,,0,0,1,"[0, 0, 0, 0, 0, 0, 0, 0, 0, 0]","[0, 0, 0, 0, 0, 0, 0, 0, 0, 0]","[0, 0, 0, 0, 0, 0, 0, 0, 0, 0]",[],[],[],0.7,63,0,0,1,196.00295132549945,196.702515529003,196.7192458647769,None,196.7192458647769,None,c,1,196.7192458647769,None,197.18605564162135,197.53583415108733,197.55271331046242,None,0.4502246722113341,,,,,,,,,,,,,,,,,,,,,,,,,,,,,,,,2019_May_27_1756,Probabilistic Learning,3.1.0,61.47887568136281,
,,,hiragana2.xlsx,hiragana21.xlsx,hiragana22.xlsx,o,b,c,None,c,None,,,,,,,,,,,0,0,0,1,2,3,63,11,,,,,,,,,,,,,,,,,,,,,,,,,,,,,,,,,,,,,,,,,,,,,,,,,0,1,0,"[0, 0, 0, 0, 0, 0, 0, 0, 0, 0]","[0, 0, 0, 0, 0, 0, 0, 0, 0, 0]","[0, 0, 0, 0, 0, 0, 0, 0, 0, 0]",[],[],[],0.6,64,0,0,1,198.13868150534108,198.73596491059288,198.75272295833565,None,198.75272295833565,None,c,1,198.75272295833565,None,199.21948706160765,199.56932202144526,199.58618886431213,None,0.4503714431775734,,,,,,,,,,,,,,,,,,,,,,,,,,,,,,,,2019_May_27_1756,Probabilistic Learning,3.1.0,61.47887568136281,
,,,hiragana2.xlsx,hiragana21.xlsx,hiragana22.xlsx,o,b,c,None,c,None,,,,,,,,,,,0,0,0,1,2,4,64,13,,,,,,,,,,,,,,,,,,,,,,,,,,,,,,,,,,,,,,,,,,,,,,,,,0,1,0,"[0, 0, 0, 0, 0, 0, 0, 0, 0, 0]","[0, 0, 0, 0, 0, 0, 0, 0, 0, 0]","[0, 0, 0, 0, 0, 0, 0, 0, 0, 0]",[],[],[],0.5,65,0,0,1,200.169527500635,200.66979692259338,200.68602844281122,None,200.68602844281122,None,c,1,200.68602844281122,None,201.10319785948377,201.45287783746608,201.46950912859756,None,0.40080806077457964,,,,,,,,,,,,,,,,,,,,,,,,,,,,,,,,2019_May_27_1756,Probabilistic Learning,3.1.0,61.47887568136281,
,,,hiragana2.xlsx,hiragana21.xlsx,hiragana22.xlsx,W,V,m,None,None,m,,,,,,,,,,,0,0,0,1,2,5,65,23,,,,,,,,,,,,,,,,,,,,,,,,,,,,,,,,,,,,,,,,,,,,,,,,,0,0,1,"[0, 0, 0, 0, 0, 0, 0, 0, 0, 0]","[0, 0, 0, 0, 0, 0, 0, 0, 0, 0]","[0, 0, 0, 0, 0, 0, 0, 0, 0, 0]",[],[],[],0.4,66,0,0,1,202.05333990894724,202.452896312112,202.46957378985826,None,202.46957378985826,None,m,1,202.46957378985826,None,202.85415443580132,203.20282036077697,203.21951631316915,None,0.3673838252434507,,,,,,,,,,,,,,,,,,,,,,,,,,,,,,,,2019_May_27_1756,Probabilistic Learning,3.1.0,61.47887568136281,
,,,hiragana2.xlsx,hiragana21.xlsx,hiragana22.xlsx,s,J,c,c,None,None,,,,,,,,,,,0,0,0,1,2,6,66,2,,,,,,,,,,,,,,,,,,,,,,,,,,,,,,,,,,,,,,,,,,,,,,,,,0,0,0,"[0, 0, 0, 0, 0, 0, 0, 0, 0, 0]","[0, 0, 0, 0, 0, 0, 0, 0, 0, 0]","[0, 0, 0, 0, 0, 0, 0, 0, 0, 0]",[],[],[],0.7,67,0,0,1,203.81560605065897,204.50299186713528,204.51953027176205,None,204.51953027176205,None,m,0,204.51953027176205,None,204.9195726608159,205.26984741992783,205.28653413499705,None,0.3843153293710202,,,,,,,,,,,,,,,,,,,,,,,,,,,,,,,,2019_May_27_1756,Probabilistic Learning,3.1.0,61.47887568136281,
,,,hiragana2.xlsx,hiragana21.xlsx,hiragana22.xlsx,V,W,m,None,None,c,,,,,,,,,,,0,0,0,1,2,7,67,26,,,,,,,,,,,,,,,,,,,,,,,,,,,,,,,,,,,,,,,,,,,,,,,,,0,0,1,"[0, 0, 0, 0, 0, 0, 0, 0, 0, 0]","[0, 0, 0, 0, 0, 0, 0, 0, 0, 0]","[0, 0, 0, 0, 0, 0, 0, 0, 0, 0]",[],[],[],0.7,68,0,0,1,205.87556860875338,206.5696386564523,206.58636078122072,None,206.58636078122072,None,c,0,206.58636078122072,None,207.1198224792024,207.4699222423369,207.4863436408341,None,0.5169191877357662,,,,,,,,,,,,,,,,,,,,,,,,,,,,,,,,2019_May_27_1756,Probabilistic Learning,3.1.0,61.47887568136281,
,,,hiragana2.xlsx,hiragana21.xlsx,hiragana22.xlsx,W,V,m,None,None,m,,,,,,,,,,,0,0,0,1,2,8,68,25,,,,,,,,,,,,,,,,,,,,,,,,,,,,,,,,,,,,,,,,,,,,,,,,,0,0,1,"[0, 0, 0, 0, 0, 0, 0, 0, 0, 0]","[0, 0, 0, 0, 0, 0, 0, 0, 0, 0]","[0, 0, 0, 0, 0, 0, 0, 0, 0, 0]",[],[],[],0.6,69,0,0,1,208.07002149219625,208.66978768527042,208.68636971071828,None,208.68636971071828,None,m,1,208.68636971071828,None,209.15474367456045,209.5032340902835,209.5198043124983,None,0.4523559286026284,,,,,,,,,,,,,,,,,,,,,,,,,,,,,,,,2019_May_27_1756,Probabilistic Learning,3.1.0,61.47887568136281,
,,,hiragana2.xlsx,hiragana21.xlsx,hiragana22.xlsx,b,o,m,None,m,None,,,,,,,,,,,0,0,0,1,2,9,69,16,,,,,,,,,,,,,,,,,,,,,,,,,,,,,,,,,,,,,,,,,,,,,,,,,0,1,0,"[0, 0, 0, 0, 0, 0, 0, 0, 0, 0]","[0, 0, 0, 0, 0, 0, 0, 0, 0, 0]","[0, 0, 0, 0, 0, 0, 0, 0, 0, 0]",[],[],[],0.6,70,0,0,1,210.10370232001878,210.70317805057857,210.7200746581657,None,210.7200746581657,None,m,1,210.7200746581657,None,211.28648179024458,211.6366123444168,211.65329444082454,None,0.5507955390494317,,,,,,,,,,,,,,,,,,,,,,,,,,,,,,,,2019_May_27_1756,Probabilistic Learning,3.1.0,61.47887568136281,
,,,hiragana2.xlsx,hiragana21.xlsx,hiragana22.xlsx,b,o,m,None,m,None,,,,,,,,,,,0,0,0,1,2,10,70,14,,,,,,,,,,,,,,,,,,,,,,,,,,,,,,,,,,,,,,,,,,,,,,,,,0,1,0,"[0, 0, 0, 0, 0, 0, 0, 0, 0, 0]","[0, 0, 0, 0, 0, 0, 0, 0, 0, 0]","[0, 0, 0, 0, 0, 0, 0, 0, 0, 0]",[],[],[],0.4,71,0,0,1,212.2376389191486,212.63655332813505,212.65321438398678,None,212.65321438398678,None,m,1,212.65321438398678,None,213.15453840058763,213.50324794626795,213.52075832290575,None,0.48507966683246195,,,,,,,,,,,,,,,,,,,,,,,,,,,,,,,,2019_May_27_1756,Probabilistic Learning,3.1.0,61.47887568136281,
,,,hiragana2.xlsx,hiragana21.xlsx,hiragana22.xlsx,W,V,c,None,None,m,,,,,,,,,,,0,0,0,1,2,11,71,28,,,,,,,,,,,,,,,,,,,,,,,,,,,,,,,,,,,,,,,,,,,,,,,,,0,0,1,"[0, 0, 0, 0, 0, 0, 0, 0, 0, 0]","[0, 0, 0, 0, 0, 0, 0, 0, 0, 0]","[0, 0, 0, 0, 0, 0, 0, 0, 0, 0]",[],[],[],0.7,72,0,0,1,214.1121077729622,214.80364371440373,214.820050230599,None,214.820050230599,None,m,0,214.820050230599,None,215.28788432409056,215.63745294103865,215.65384252218064,None,0.4522450806107372,,,,,,,,,,,,,,,,,,,,,,,,,,,,,,,,2019_May_27_1756,Probabilistic Learning,3.1.0,61.47887568136281,
,,,hiragana2.xlsx,hiragana21.xlsx,hiragana22.xlsx,s,J,c,c,None,None,,,,,,,,,,,0,0,0,1,2,12,72,3,,,,,,,,,,,,,,,,,,,,,,,,,,,,,,,,,,,,,,,,,,,,,,,,,0,0,0,"[0, 0, 0, 0, 0, 0, 0, 0, 0, 0]","[0, 0, 0, 0, 0, 0, 0, 0, 0, 0]","[0, 0, 0, 0, 0, 0, 0, 0, 0, 0]",[],[],[],0.6,73,0,0,1,216.23734537744895,216.83680468599778,216.85469687206205,None,216.85469687206205,None,m,0,216.85469687206205,None,217.25355329120066,217.60346779460087,217.62064665392973,None,0.38254638167563826,,,,,,,,,,,,,,,,,,,,,,,,,,,,,,,,2019_May_27_1756,Probabilistic Learning,3.1.0,61.47887568136281,
,,,hiragana2.xlsx,hiragana21.xlsx,hiragana22.xlsx,o,b,c,None,c,None,,,,,,,,,,,0,0,0,1,2,13,73,12,,,,,,,,,,,,,,,,,,,,,,,,,,,,,,,,,,,,,,,,,,,,,,,,,0,1,0,"[0, 0, 0, 0, 0, 0, 0, 0, 0, 0]","[0, 0, 0, 0, 0, 0, 0, 0, 0, 0]","[0, 0, 0, 0, 0, 0, 0, 0, 0, 0]",[],[],[],0.4,74,0,0,1,218.20362913992722,218.60443309508264,218.62035875720903,None,218.62035875720903,None,c,1,218.62035875720903,None,219.10351038898807,219.4539047201397,219.47041079413611,None,0.46703711757436395,,,,,,,,,,,,,,,,,,,,,,,,,,,,,,,,2019_May_27_1756,Probabilistic Learning,3.1.0,61.47887568136281,
,,,hiragana2.xlsx,hiragana21.xlsx,hiragana22.xlsx,W,V,m,None,None,m,,,,,,,,,,,0,0,0,1,2,14,74,24,,,,,,,,,,,,,,,,,,,,,,,,,,,,,,,,,,,,,,,,,,,,,,,,,0,0,0,"[0, 0, 0, 0, 0, 0, 0, 0, 0, 0]","[0, 0, 0, 0, 0, 0, 0, 0, 0, 0]","[0, 0, 0, 0, 0, 0, 0, 0, 0, 0]",[],[],[],0.8,75,0,0,1,220.05411173880566,220.85513667145278,220.87047473702114,None,220.87047473702114,None,c,0,220.87047473702114,None,221.3373640574282,221.686798733077,221.70348544814624,None,0.45008200698066503,,,,,,,,,,,,,,,,,,,,,,,,,,,,,,,,2019_May_27_1756,Probabilistic Learning,3.1.0,61.47887568136281,
,,,hiragana2.xlsx,hiragana21.xlsx,hiragana22.xlsx,J,s,m,m,None,None,,,,,,,,,,,0,0,0,1,2,15,75,7,,,,,,,,,,,,,,,,,,,,,,,,,,,,,,,,,,,,,,,,,,,,,,,,,1,0,0,"[0, 0, 0, 0, 0, 0, 0, 0, 0, 0]","[0, 0, 0, 0, 0, 0, 0, 0, 0, 0]","[0, 0, 0, 0, 0, 0, 0, 0, 0, 0]",[],[],[],0.7,76,0,0,1,222.28716022043955,222.98704259854276,223.0037831979571,None,223.0037831979571,None,m,1,223.0037831979571,None,223.4704826400848,223.82042074995115,223.8371480066562,None,0.4504201957024634,,,,,,,,,,,,,,,,,,,,,,,,,,,,,,,,2019_May_27_1756,Probabilistic Learning,3.1.0,61.47887568136281,
,,,hiragana2.xlsx,hiragana21.xlsx,hiragana22.xlsx,b,o,m,None,m,None,,,,,,,,,,,0,0,0,1,2,16,76,15,,,,,,,,,,,,,,,,,,,,,,,,,,,,,,,,,,,,,,,,,,,,,,,,,0,1,0,"[0, 0, 0, 0, 0, 0, 0, 0, 0, 0]","[0, 0, 0, 0, 0, 0, 0, 0, 0, 0]","[0, 0, 0, 0, 0, 0, 0, 0, 0, 0]",[],[],[],0.4,77,0,0,1,224.42074426158797,224.82088980078697,224.83714236156084,None,224.83714236156084,None,m,1,224.83714236156084,None,225.3538660260383,225.70496188069228,225.72095733589958,None,0.5002581318840384,,,,,,,,,,,,,,,,,,,,,,,,,,,,,,,,2019_May_27_1756,Probabilistic Learning,3.1.0,61.47887568136281,
,,,hiragana2.xlsx,hiragana21.xlsx,hiragana22.xlsx,J,s,c,m,None,None,,,,,,,,,,,0,0,0,1,2,17,77,9,,,,,,,,,,,,,,,,,,,,,,,,,,,,,,,,,,,,,,,,,,,,,,,,,1,0,0,"[0, 0, 0, 0, 0, 0, 0, 0, 0, 0]","[0, 0, 0, 0, 0, 0, 0, 0, 0, 0]","[0, 0, 0, 0, 0, 0, 0, 0, 0, 0]",[],[],[],0.6,78,0,0,1,226.30444069032092,226.90378812456038,226.92055746237747,None,226.92055746237747,None,m,0,226.92055746237747,None,227.38768644002266,227.73746956815012,227.75413319002837,None,0.45057363784871995,,,,,,,,,,,,,,,,,,,,,,,,,,,,,,,,2019_May_27_1756,Probabilistic Learning,3.1.0,61.47887568136281,
,,,hiragana2.xlsx,hiragana21.xlsx,hiragana22.xlsx,V,W,c,None,None,c,,,,,,,,,,,0,0,0,1,2,18,78,20,,,,,,,,,,,,,,,,,,,,,,,,,,,,,,,,,,,,,,,,,,,,,,,,,0,0,1,"[0, 0, 0, 0, 0, 0, 0, 0, 0, 0]","[0, 0, 0, 0, 0, 0, 0, 0, 0, 0]","[0, 0, 0, 0, 0, 0, 0, 0, 0, 0]",[],[],[],0.5,79,0,0,1,228.3398422265891,228.83742820553016,228.85529421910178,None,228.85529421910178,None,c,1,228.85529421910178,None,229.67089770385064,230.02072086045519,230.03745222254656,None,0.7988854653667659,,,,,,,,,,,,,,,,,,,,,,,,,,,,,,,,2019_May_27_1756,Probabilistic Learning,3.1.0,61.47887568136281,
,,,hiragana2.xlsx,hiragana21.xlsx,hiragana22.xlsx,W,V,c,None,None,m,,,,,,,,,,,0,0,0,1,2,19,79,29,,,,,,,,,,,,,,,,,,,,,,,,,,,,,,,,,,,,,,,,,,,,,,,,,0,0,1,"[0, 0, 0, 0, 0, 0, 0, 0, 0, 0]","[0, 0, 0, 0, 0, 0, 0, 0, 0, 0]","[0, 0, 0, 0, 0, 0, 0, 0, 0, 0]",[],[],[],0.6,80,0,0,1,230.62118293193635,231.22088959557004,231.2374741868116,None,231.2374741868116,None,m,0,231.2374741868116,None,231.70578810817096,232.05451818113215,232.07114434044342,None,0.451868916163221,,,,,,,,,,,,,,,,,,,,,,,,,,,,,,,,2019_May_27_1756,Probabilistic Learning,3.1.0,61.47887568136281,
,,,hiragana2.xlsx,hiragana21.xlsx,hiragana22.xlsx,V,W,c,None,None,c,,,,,,,,,,,0,0,0,1,2,20,80,21,,,,,,,,,,,,,,,,,,,,,,,,,,,,,,,,,,,,,,,,,,,,,,,,,0,0,1,"[0, 0, 0, 0, 0, 0, 0, 0, 0, 0]","[0, 0, 0, 0, 0, 0, 0, 0, 0, 0]","[0, 0, 0, 0, 0, 0, 0, 0, 0, 0]",[],[],[],0.4,81,0,0,1,232.65457432356197,233.05426364159212,233.0710463221185,None,233.0710463221185,None,c,1,233.0710463221185,None,233.48814902477898,233.8379147046944,233.85558776080143,None,0.401155486702919,,,,,,,,,,,,,,,,,,,,,,,,,,,,,,,,2019_May_27_1756,Probabilistic Learning,3.1.0,61.47887568136281,
,,,hiragana2.xlsx,hiragana21.xlsx,hiragana22.xlsx,s,J,c,c,None,None,,,,,,,,,,,0,0,0,1,2,21,81,1,,,,,,,,,,,,,,,,,,,,,,,,,,,,,,,,,,,,,,,,,,,,,,,,,1,0,0,"[0, 0, 0, 0, 0, 0, 0, 0, 0, 0]","[0, 0, 0, 0, 0, 0, 0, 0, 0, 0]","[0, 0, 0, 0, 0, 0, 0, 0, 0, 0]",[],[],[],0.7,82,0,0,1,234.43783587950747,235.13771158608142,235.15430438844487,None,235.15430438844487,None,c,1,235.15430438844487,None,235.60433097137138,235.9543455458479,235.97105945972726,None,0.4338453548261896,,,,,,,,,,,,,,,,,,,,,,,,,,,,,,,,2019_May_27_1756,Probabilistic Learning,3.1.0,61.47887568136281,
,,,hiragana2.xlsx,hiragana21.xlsx,hiragana22.xlsx,J,s,m,m,None,None,,,,,,,,,,,0,0,0,1,2,22,82,5,,,,,,,,,,,,,,,,,,,,,,,,,,,,,,,,,,,,,,,,,,,,,,,,,1,0,0,"[0, 0, 0, 0, 0, 0, 0, 0, 0, 0]","[0, 0, 0, 0, 0, 0, 0, 0, 0, 0]","[0, 0, 0, 0, 0, 0, 0, 0, 0, 0]",[],[],[],0.7,83,0,0,1,236.55475732521154,237.25444828544278,237.27116373879835,None,237.27116373879835,None,m,1,237.27116373879835,None,237.78774781699758,238.13754480110947,238.15428078186233,None,0.5003977181622759,,,,,,,,,,,,,,,,,,,,,,,,,,,,,,,,2019_May_27_1756,Probabilistic Learning,3.1.0,61.47887568136281,
,,,hiragana2.xlsx,hiragana21.xlsx,hiragana22.xlsx,,,,,,,J,b,B,D,None,m,,,,,0,0,0,1,,,,,0,0,0,26,,,,,,,,,,,,,,,,,,,,,,,,,,,,,,,,,,,,,,,,,,,,,,,,,,,,,,0.7,,,,,,,,,,,,,,,,,,,,238.73790936754085,None,space,1.1000741039169952,238.73790936754085,None,239.85573812387884,None,space,0.5164614270906895,239.85573812387884,None,0,0,240.40628938702866,241.40467798686586,241.40467798686586,None,241.40467798686586,None,None,241.40467798686586,None,,,,,,,,,2019_May_27_1756,Probabilistic Learning,3.1.0,61.47887568136281,
,,,hiragana2.xlsx,hiragana21.xlsx,hiragana22.xlsx,,,,,,,s,o,A,C,c,None,,,,,0,0,0,1,,,,,0,1,1,7,,,,,,,,,,,,,,,,,,,,,,,,,,,,,,,,,,,,,,,,,,,,,,,,,,,,,,0.4,,,,,,,,,,,,,,,,,,,,,,,,,,,,,,,,0,0,242.90617084130645,243.6714734971756,243.68802011280786,242.90617084130645,243.68802011280786,242.90617084130645,None,243.68802011280786,None,,,,,,,,,2019_May_27_1756,Probabilistic Learning,3.1.0,61.47887568136281,
,,,hiragana2.xlsx,hiragana21.xlsx,hiragana22.xlsx,,,,,,,W,s,F,A,m,None,,,,,0,0,0,1,,,,,0,2,2,20,,,,,,,,,,,,,,,,,,,,,,,,,,,,,,,,,,,,,,,,,,,,,,,,,,,,,,0.6,,,,,,,,,,,,,,,,,,,,,,,,,,,,,,,,0,0,245.17272977344692,246.08858338440768,246.10493498982396,245.17272977344692,246.10493498982396,245.17272977344692,None,246.10493498982396,None,,,,,,,,,2019_May_27_1756,Probabilistic Learning,3.1.0,61.47887568136281,
,,,hiragana2.xlsx,hiragana21.xlsx,hiragana22.xlsx,,,,,,,b,s,D,A,m,None,,,,,0,0,0,1,,,,,0,3,3,13,,,,,,,,,,,,,,,,,,,,,,,,,,,,,,,,,,,,,,,,,,,,,,,,,,,,,,0.5,,,,,,,,,,,,,,,,,,,,,,,,,,,,,,,,0,0,247.58845508820377,248.23827886057552,248.2550625675358,247.58845508820377,248.2550625675358,247.58845508820377,None,248.2550625675358,None,,,,,,,,,2019_May_27_1756,Probabilistic Learning,3.1.0,61.47887568136281,
,,,hiragana2.xlsx,hiragana21.xlsx,hiragana22.xlsx,,,,,,,s,J,A,B,None,None,,,,,0,0,0,1,,,,,0,4,4,0,,,,,,,,,,,,,,,,,,,,,,,,,,,,,,,,,,,,,,,,,,,,,,,,,,,,,,0.7,,,,,,,,,,,,,,,,,,,,,,,,,,,,,,,,0,0,249.73918565793429,250.72254512947984,250.72254512947984,249.73918565793429,250.72254512947984,249.73918565793429,None,250.72254512947984,None,,,,,,,,,2019_May_27_1756,Probabilistic Learning,3.1.0,61.47887568136281,
,,,hiragana2.xlsx,hiragana21.xlsx,hiragana22.xlsx,,,,,,,o,b,C,D,None,None,,,,,0,0,0,1,,,,,0,5,5,2,,,,,,,,,,,,,,,,,,,,,,,,,,,,,,,,,,,,,,,,,,,,,,,,,,,,,,0.4,,,,,,,,,,,,,,,,,,,,,,,,,,,,,,,,0,0,252.2224445453612,252.77178879780695,252.78855095105246,252.2224445453612,252.78855095105246,252.2224445453612,None,252.78855095105246,None,,,,,,,,,2019_May_27_1756,Probabilistic Learning,3.1.0,61.47887568136281,
,,,hiragana2.xlsx,hiragana21.xlsx,hiragana22.xlsx,,,,,,,b,J,D,B,None,c,,,,,0,0,0,1,,,,,0,6,6,29,,,,,,,,,,,,,,,,,,,,,,,,,,,,,,,,,,,,,,,,,,,,,,,,,,,,,,0.4,,,,,,,,,,,,,,,,,,,,,,,,,,,,,,,,0,0,254.2730250598397,255.12209742714185,255.12209742714185,254.2730250598397,255.12209742714185,254.2730250598397,None,255.12209742714185,None,,,,,,,,,2019_May_27_1756,Probabilistic Learning,3.1.0,61.47887568136281,
,,,hiragana2.xlsx,hiragana21.xlsx,hiragana22.xlsx,,,,,,,o,s,C,A,m,None,,,,,0,0,0,1,,,,,0,7,7,8,,,,,,,,,,,,,,,,,,,,,,,,,,,,,,,,,,,,,,,,,,,,,,,,,,,,,,0.4,,,,,,,,,,,,,,,,,,,,,,,,,,,,,,,,0,0,256.6230170541676,257.57218046044,257.57218046044,256.6230170541676,257.57218046044,256.6230170541676,None,257.57218046044,None,,,,,,,,,2019_May_27_1756,Probabilistic Learning,3.1.0,61.47887568136281,
,,,hiragana2.xlsx,hiragana21.xlsx,hiragana22.xlsx,,,,,,,o,J,C,B,None,c,,,,,0,0,0,1,,,,,0,8,8,24,,,,,,,,,,,,,,,,,,,,,,,,,,,,,,,,,,,,,,,,,,,,,,,,,,,,,,0.7,,,,,,,,,,,,,,,,,,,,,,,,,,,,,,,,0,0,259.0724360264139,259.67275081400294,259.6888150359737,259.0724360264139,259.6888150359737,259.0724360264139,None,259.6888150359737,None,,,,,,,,,2019_May_27_1756,Probabilistic Learning,3.1.0,61.47887568136281,
,,,hiragana2.xlsx,hiragana21.xlsx,hiragana22.xlsx,,,,,,,o,s,C,A,m,None,,,,,0,0,0,1,,,,,0,9,9,9,,,,,,,,,,,,,,,,,,,,,,,,,,,,,,,,,,,,,,,,,,,,,,,,,,,,,,0.6,,,,,,,,,,,,,,,,,,,,,,,,,,,,,,,,0,0,261.1723171728663,261.9057407925138,261.92222582595423,261.1723171728663,261.92222582595423,261.1723171728663,None,261.92222582595423,None,,,,,,,,,2019_May_27_1756,Probabilistic Learning,3.1.0,61.47887568136281,
,,,hiragana2.xlsx,hiragana21.xlsx,hiragana22.xlsx,,,,,,,o,W,c,f,None,None,,,,,0,0,0,1,,,,,0,10,10,40,,,,,,,,,,,,,,,,,,,,,,,,,,,,,,,,,,,,,,,,,,,,,,,,,,,,,,0.5,,,,,,,,,,,,,,,,,,,,,,,,,,,,,,,,0,0,263.40579262410756,263.9224003087729,263.9390023483429,263.40579262410756,263.9390023483429,263.40579262410756,None,263.9390023483429,None,,,,,,,,,2019_May_27_1756,Probabilistic Learning,3.1.0,61.47887568136281,
,,,hiragana2.xlsx,hiragana21.xlsx,hiragana22.xlsx,,,,,,,V,s,E,A,m,None,,,,,0,0,0,1,,,,,0,11,11,17,,,,,,,,,,,,,,,,,,,,,,,,,,,,,,,,,,,,,,,,,,,,,,,,,,,,,,0.3,,,,,,,,,,,,,,,,,,,,,,,,,,,,,,,,0,0,265.4235985951964,266.18910909083206,266.205906140618,265.4235985951964,266.205906140618,265.4235985951964,None,266.205906140618,None,,,,,,,,,2019_May_27_1756,Probabilistic Learning,3.1.0,61.47887568136281,
,,,hiragana2.xlsx,hiragana21.xlsx,hiragana22.xlsx,,,,,,,b,V,d,e,None,None,,,,,0,0,0,1,,,,,0,12,12,42,,,,,,,,,,,,,,,,,,,,,,,,,,,,,,,,,,,,,,,,,,,,,,,,,,,,,,0.4,,,,,,,,,,,,,,,,,,,,,,,,,,,,,,,,0,0,267.69033816829324,268.3898587510921,268.40642846003175,267.69033816829324,268.40642846003175,267.69033816829324,None,268.40642846003175,None,,,,,,,,,2019_May_27_1756,Probabilistic Learning,3.1.0,61.47887568136281,
,,,hiragana2.xlsx,hiragana21.xlsx,hiragana22.xlsx,,,,,,,J,V,B,E,None,m,,,,,0,0,0,1,,,,,0,13,13,30,,,,,,,,,,,,,,,,,,,,,,,,,,,,,,,,,,,,,,,,,,,,,,,,,,,,,,0.5,,,,,,,,,,,,,,,,,,,,,,,,,,,,,,,,0,0,269.8894020166481,270.6398218018003,270.65597172558773,269.8894020166481,270.65597172558773,269.8894020166481,None,270.65597172558773,None,,,,,,,,,2019_May_27_1756,Probabilistic Learning,3.1.0,61.47887568136281,
,,,hiragana2.xlsx,hiragana21.xlsx,hiragana22.xlsx,,,,,,,V,W,E,F,None,None,,,,,0,0,0,1,,,,,0,14,14,4,,,,,,,,,,,,,,,,,,,,,,,,,,,,,,,,,,,,,,,,,,,,,,,,,,,,,,0.5,,,,,,,,,,,,,,,,,,,,,,,,,,,,,,,,0,0,272.14067266206257,272.6894041720079,272.6894041720079,272.14067266206257,272.6894041720079,272.14067266206257,None,272.6894041720079,None,,,,,,,,,2019_May_27_1756,Probabilistic Learning,3.1.0,61.47887568136281,
,,,hiragana2.xlsx,hiragana21.xlsx,hiragana22.xlsx,,,,,,,o,J,C,B,None,c,,,,,0,0,0,1,,,,,0,15,15,25,,,,,,,,,,,,,,,,,,,,,,,,,,,,,,,,,,,,,,,,,,,,,,,,,,,,,,0.5,,,,,,,,,,,,,,,,,,,,,,,,,,,,,,,,0,0,274.19081953552086,274.9059907135088,274.9228211202426,274.19081953552086,274.9228211202426,274.19081953552086,None,274.9228211202426,None,,,,,,,,,2019_May_27_1756,Probabilistic Learning,3.1.0,61.47887568136281,
,,,hiragana2.xlsx,hiragana21.xlsx,hiragana22.xlsx,,,,,,,W,J,F,B,None,c,,,,,0,0,0,1,,,,,0,16,16,36,,,,,,,,,,,,,,,,,,,,,,,,,,,,,,,,,,,,,,,,,,,,,,,,,,,,,,0.5,,,,,,,,,,,,,,,,,,,,,,,,,,,,,,,,0,0,276.4063889448298,276.95633003127296,276.9731650566682,276.4063889448298,276.9731650566682,276.4063889448298,None,276.9731650566682,None,,,,,,,,,2019_May_27_1756,Probabilistic Learning,3.1.0,61.47887568136281,
,,,hiragana2.xlsx,hiragana21.xlsx,hiragana22.xlsx,,,,,,,J,o,B,C,None,m,,,,,0,0,0,1,,,,,0,17,17,23,,,,,,,,,,,,,,,,,,,,,,,,,,,,,,,,,,,,,,,,,,,,,,,,,,,,,,0.3,,,,,,,,,,,,,,,,,,,,,,,,,,,,,,,,0,0,278.4580984658096,279.1065007164143,279.123144324054,278.4580984658096,279.123144324054,278.4580984658096,None,279.123144324054,None,,,,,,,,,2019_May_27_1756,Probabilistic Learning,3.1.0,61.47887568136281,
,,,hiragana2.xlsx,hiragana21.xlsx,hiragana22.xlsx,,,,,,,J,W,B,F,None,m,,,,,0,0,0,1,,,,,0,18,18,34,,,,,,,,,,,,,,,,,,,,,,,,,,,,,,,,,,,,,,,,,,,,,,,,,,,,,,0.3,,,,,,,,,,,,,,,,,,,,,,,,,,,,,,,,0,0,280.6066408158513,281.4900231754873,281.4900231754873,280.6066408158513,281.4900231754873,280.6066408158513,None,281.4900231754873,None,,,,,,,,,2019_May_27_1756,Probabilistic Learning,3.1.0,61.47887568136281,
,,,hiragana2.xlsx,hiragana21.xlsx,hiragana22.xlsx,,,,,,,V,o,e,c,None,None,,,,,0,0,0,1,,,,,0,19,19,39,,,,,,,,,,,,,,,,,,,,,,,,,,,,,,,,,,,,,,,,,,,,,,,,,,,,,,0.6,,,,,,,,,,,,,,,,,,,,,,,,,,,,,,,,0,0,282.9907118694391,283.8583440760849,283.87402289628517,282.9907118694391,283.87402289628517,282.9907118694391,None,283.87402289628517,None,,,,,,,,,2019_May_27_1756,Probabilistic Learning,3.1.0,61.47887568136281,
,,,hiragana2.xlsx,hiragana21.xlsx,hiragana22.xlsx,,,,,,,s,W,A,F,c,None,,,,,0,0,0,1,,,,,0,20,20,18,,,,,,,,,,,,,,,,,,,,,,,,,,,,,,,,,,,,,,,,,,,,,,,,,,,,,,0.8,,,,,,,,,,,,,,,,,,,,,,,,,,,,,,,,0,0,285.3578447472537,285.9901709726546,286.00702755188104,285.3578447472537,286.00702755188104,285.3578447472537,None,286.00702755188104,None,,,,,,,,,2019_May_27_1756,Probabilistic Learning,3.1.0,61.47887568136281,
,,,hiragana2.xlsx,hiragana21.xlsx,hiragana22.xlsx,,,,,,,V,b,e,d,None,None,,,,,0,0,0,1,,,,,0,21,21,43,,,,,,,,,,,,,,,,,,,,,,,,,,,,,,,,,,,,,,,,,,,,,,,,,,,,,,0.7,,,,,,,,,,,,,,,,,,,,,,,,,,,,,,,,0,0,287.4910572427325,288.156911366852,288.1737135485746,287.4910572427325,288.1737135485746,287.4910572427325,None,288.1737135485746,None,,,,,,,,,2019_May_27_1756,Probabilistic Learning,3.1.0,61.47887568136281,
,,,hiragana2.xlsx,hiragana21.xlsx,hiragana22.xlsx,,,,,,,W,o,f,c,None,None,,,,,0,0,0,1,,,,,0,22,22,41,,,,,,,,,,,,,,,,,,,,,,,,,,,,,,,,,,,,,,,,,,,,,,,,,,,,,,0.5,,,,,,,,,,,,,,,,,,,,,,,,,,,,,,,,0,0,289.65777608321514,290.5571333706612,290.5739139985526,289.65777608321514,290.5739139985526,289.65777608321514,None,290.5739139985526,None,,,,,,,,,2019_May_27_1756,Probabilistic Learning,3.1.0,61.47887568136281,
,,,hiragana2.xlsx,hiragana21.xlsx,hiragana22.xlsx,,,,,,,W,J,F,B,None,c,,,,,0,0,0,1,,,,,0,23,23,37,,,,,,,,,,,,,,,,,,,,,,,,,,,,,,,,,,,,,,,,,,,,,,,,,,,,,,0.5,,,,,,,,,,,,,,,,,,,,,,,,,,,,,,,,0,0,292.05707230162807,292.9405003346037,292.9571229016874,292.05707230162807,292.9571229016874,292.05707230162807,None,292.9571229016874,None,,,,,,,,,2019_May_27_1756,Probabilistic Learning,3.1.0,61.47887568136281,
,,,hiragana2.xlsx,hiragana21.xlsx,hiragana22.xlsx,,,,,,,J,b,B,D,None,m,,,,,0,0,0,1,,,,,0,24,24,27,,,,,,,,,,,,,,,,,,,,,,,,,,,,,,,,,,,,,,,,,,,,,,,,,,,,,,0.6,,,,,,,,,,,,,,,,,,,,,,,,,,,,,,,,0,0,294.44171145069413,295.12418249680195,295.1406336600194,294.44171145069413,295.1406336600194,294.44171145069413,None,295.1406336600194,None,,,,,,,,,2019_May_27_1756,Probabilistic Learning,3.1.0,61.47887568136281,
,,,hiragana2.xlsx,hiragana21.xlsx,hiragana22.xlsx,,,,,,,s,b,A,D,c,None,,,,,0,0,0,1,,,,,0,25,25,10,,,,,,,,,,,,,,,,,,,,,,,,,,,,,,,,,,,,,,,,,,,,,,,,,,,,,,0.4,,,,,,,,,,,,,,,,,,,,,,,,,,,,,,,,0,0,296.6248860730557,297.1572018294828,297.1572018294828,296.6248860730557,297.1572018294828,296.6248860730557,None,297.1572018294828,None,,,,,,,,,2019_May_27_1756,Probabilistic Learning,3.1.0,61.47887568136281,
,,,hiragana2.xlsx,hiragana21.xlsx,hiragana22.xlsx,,,,,,,s,o,A,C,c,None,,,,,0,0,0,1,,,,,0,26,26,6,,,,,,,,,,,,,,,,,,,,,,,,,,,,,,,,,,,,,,,,,,,,,,,,,,,,,,0.6,,,,,,,,,,,,,,,,,,,,,,,,,,,,,,,,0,0,298.65766985400114,299.37416196940467,299.39121561159845,298.65766985400114,299.39121561159845,298.65766985400114,None,299.39121561159845,None,,,,,,,,,2019_May_27_1756,Probabilistic Learning,3.1.0,61.47887568136281,
,,,hiragana2.xlsx,hiragana21.xlsx,hiragana22.xlsx,,,,,,,V,J,E,B,None,c,,,,,0,0,0,1,,,,,0,27,27,32,,,,,,,,,,,,,,,,,,,,,,,,,,,,,,,,,,,,,,,,,,,,,,,,,,,,,,0.8,,,,,,,,,,,,,,,,,,,,,,,,,,,,,,,,0,0,300.8760330409277,301.7075416604057,301.7244859942002,300.8760330409277,301.7244859942002,300.8760330409277,None,301.7244859942002,None,,,,,,,,,2019_May_27_1756,Probabilistic Learning,3.1.0,61.47887568136281,
,,,hiragana2.xlsx,hiragana21.xlsx,hiragana22.xlsx,,,,,,,b,o,D,C,None,None,,,,,0,0,0,1,,,,,0,28,28,3,,,,,,,,,,,,,,,,,,,,,,,,,,,,,,,,,,,,,,,,,,,,,,,,,,,,,,0.7,,,,,,,,,,,,,,,,,,,,,,,,,,,,,,,,0,0,303.2081790358061,304.17436016129795,304.1909955579322,303.2081790358061,304.1909955579322,303.2081790358061,None,304.1909955579322,None,,,,,,,,,2019_May_27_1756,Probabilistic Learning,3.1.0,61.47887568136281,
,,,hiragana2.xlsx,hiragana21.xlsx,hiragana22.xlsx,,,,,,,o,V,C,E,None,None,,,,,0,0,0,1,,,,,0,29,29,38,,,,,,,,,,,,,,,,,,,,,,,,,,,,,,,,,,,,,,,,,,,,,,,,,,,,,,0.6,,,,,,,,,,,,,,,,,,,,,,,,,,,,,,,,0,0,305.6765971336281,306.57438356254715,306.59108105453197,305.6765971336281,306.59108105453197,305.6765971336281,None,306.59108105453197,None,,,,,,,,,2019_May_27_1756,Probabilistic Learning,3.1.0,61.47887568136281,
,,,hiragana2.xlsx,hiragana21.xlsx,hiragana22.xlsx,,,,,,,s,W,A,F,c,None,,,,,0,0,0,1,,,,,0,30,30,19,,,,,,,,,,,,,,,,,,,,,,,,,,,,,,,,,,,,,,,,,,,,,,,,,,,,,,0.8,,,,,,,,,,,,,,,,,,,,,,,,,,,,,,,,0,0,308.07536271901336,308.7078008187236,308.724672280252,308.07536271901336,308.724672280252,308.07536271901336,None,308.724672280252,None,,,,,,,,,2019_May_27_1756,Probabilistic Learning,3.1.0,61.47887568136281,
,,,hiragana2.xlsx,hiragana21.xlsx,hiragana22.xlsx,,,,,,,J,V,B,E,None,m,,,,,0,0,0,1,,,,,0,31,31,31,,,,,,,,,,,,,,,,,,,,,,,,,,,,,,,,,,,,,,,,,,,,,,,,,,,,,,0.7,,,,,,,,,,,,,,,,,,,,,,,,,,,,,,,,0,0,310.2086732327007,310.79136474302504,310.80818078061566,310.2086732327007,310.80818078061566,310.2086732327007,None,310.80818078061566,None,,,,,,,,,2019_May_27_1756,Probabilistic Learning,3.1.0,61.47887568136281,
,,,hiragana2.xlsx,hiragana21.xlsx,hiragana22.xlsx,,,,,,,J,W,B,F,None,m,,,,,0,0,0,1,,,,,0,32,32,35,,,,,,,,,,,,,,,,,,,,,,,,,,,,,,,,,,,,,,,,,,,,,,,,,,,,,,0.5,,,,,,,,,,,,,,,,,,,,,,,,,,,,,,,,0,0,312.291352939792,313.1080556662055,313.12486965116113,312.291352939792,313.12486965116113,312.291352939792,None,313.12486965116113,None,,,,,,,,,2019_May_27_1756,Probabilistic Learning,3.1.0,61.47887568136281,
,,,hiragana2.xlsx,hiragana21.xlsx,hiragana22.xlsx,,,,,,,b,s,D,A,m,None,,,,,0,0,0,1,,,,,0,33,33,12,,,,,,,,,,,,,,,,,,,,,,,,,,,,,,,,,,,,,,,,,,,,,,,,,,,,,,0.7,,,,,,,,,,,,,,,,,,,,,,,,,,,,,,,,0,0,314.60915798705537,315.3915435365634,315.4081979210023,314.60915798705537,315.4081979210023,314.60915798705537,None,315.4081979210023,None,,,,,,,,,2019_May_27_1756,Probabilistic Learning,3.1.0,61.47887568136281,
,,,hiragana2.xlsx,hiragana21.xlsx,hiragana22.xlsx,,,,,,,s,b,A,D,c,None,,,,,0,0,0,1,,,,,0,34,34,11,,,,,,,,,,,,,,,,,,,,,,,,,,,,,,,,,,,,,,,,,,,,,,,,,,,,,,0.6,,,,,,,,,,,,,,,,,,,,,,,,,,,,,,,,0,0,316.89379385171924,317.85895733186044,317.875655337004,316.89379385171924,317.875655337004,316.89379385171924,None,317.875655337004,None,,,,,,,,,2019_May_27_1756,Probabilistic Learning,3.1.0,61.47887568136281,
,,,hiragana2.xlsx,hiragana21.xlsx,hiragana22.xlsx,,,,,,,b,W,d,f,None,None,,,,,0,0,0,1,,,,,0,35,35,44,,,,,,,,,,,,,,,,,,,,,,,,,,,,,,,,,,,,,,,,,,,,,,,,,,,,,,0.5,,,,,,,,,,,,,,,,,,,,,,,,,,,,,,,,0,0,319.35927601950243,320.3585000842577,320.3585000842577,319.35927601950243,320.3585000842577,319.35927601950243,None,320.3585000842577,None,,,,,,,,,2019_May_27_1756,Probabilistic Learning,3.1.0,61.47887568136281,
,,,hiragana2.xlsx,hiragana21.xlsx,hiragana22.xlsx,,,,,,,W,b,f,d,None,None,,,,,0,0,0,1,,,,,0,36,36,45,,,,,,,,,,,,,,,,,,,,,,,,,,,,,,,,,,,,,,,,,,,,,,,,,,,,,,0.4,,,,,,,,,,,,,,,,,,,,,,,,,,,,,,,,0,0,321.8606883039465,322.6417642059969,322.6584519475,321.8606883039465,322.6584519475,321.8606883039465,None,322.6584519475,None,,,,,,,,,2019_May_27_1756,Probabilistic Learning,3.1.0,61.47887568136281,
,,,hiragana2.xlsx,hiragana21.xlsx,hiragana22.xlsx,,,,,,,s,V,A,E,c,None,,,,,0,0,0,1,,,,,0,37,37,15,,,,,,,,,,,,,,,,,,,,,,,,,,,,,,,,,,,,,,,,,,,,,,,,,,,,,,0.3,,,,,,,,,,,,,,,,,,,,,,,,,,,,,,,,0,0,324.1433150502853,324.75865640025586,324.77531181112863,324.1433150502853,324.77531181112863,324.1433150502853,None,324.77531181112863,None,,,,,,,,,2019_May_27_1756,Probabilistic Learning,3.1.0,61.47887568136281,
,,,hiragana2.xlsx,hiragana21.xlsx,hiragana22.xlsx,,,,,,,W,s,F,A,m,None,,,,,0,0,0,1,,,,,0,38,38,21,,,,,,,,,,,,,,,,,,,,,,,,,,,,,,,,,,,,,,,,,,,,,,,,,,,,,,0.6,,,,,,,,,,,,,,,,,,,,,,,,,,,,,,,,0,0,326.2598582789069,326.9420886414591,326.9420886414591,326.2598582789069,326.9420886414591,326.2598582789069,None,326.9420886414591,None,,,,,,,,,2019_May_27_1756,Probabilistic Learning,3.1.0,61.47887568136281,
,,,hiragana2.xlsx,hiragana21.xlsx,hiragana22.xlsx,,,,,,,V,s,E,A,m,None,,,,,0,0,0,1,,,,,0,39,39,16,,,,,,,,,,,,,,,,,,,,,,,,,,,,,,,,,,,,,,,,,,,,,,,,,,,,,,0.6,,,,,,,,,,,,,,,,,,,,,,,,,,,,,,,,0,0,328.44252998032607,329.39230715553276,329.4088142559631,328.44252998032607,329.4088142559631,328.44252998032607,None,329.4088142559631,None,,,,,,,,,2019_May_27_1756,Probabilistic Learning,3.1.0,61.47887568136281,
,,,hiragana2.xlsx,hiragana21.xlsx,hiragana22.xlsx,,,,,,,V,J,E,B,None,c,,,,,0,0,0,1,,,,,0,40,40,33,,,,,,,,,,,,,,,,,,,,,,,,,,,,,,,,,,,,,,,,,,,,,,,,,,,,,,0.5,,,,,,,,,,,,,,,,,,,,,,,,,,,,,,,,0,0,330.89240209467243,331.70886311109643,331.7263293538708,330.89240209467243,331.7263293538708,330.89240209467243,None,331.7263293538708,None,,,,,,,,,2019_May_27_1756,Probabilistic Learning,3.1.0,61.47887568136281,
,,,hiragana2.xlsx,hiragana21.xlsx,hiragana22.xlsx,,,,,,,s,V,A,E,c,None,,,,,0,0,0,1,,,,,0,41,41,14,,,,,,,,,,,,,,,,,,,,,,,,,,,,,,,,,,,,,,,,,,,,,,,,,,,,,,0.7,,,,,,,,,,,,,,,,,,,,,,,,,,,,,,,,0,0,333.210660797311,333.7257160980953,333.7424720930867,333.210660797311,333.7424720930867,333.210660797311,None,333.7424720930867,None,,,,,,,,,2019_May_27_1756,Probabilistic Learning,3.1.0,61.47887568136281,
,,,hiragana2.xlsx,hiragana21.xlsx,hiragana22.xlsx,,,,,,,b,J,D,B,None,c,,,,,0,0,0,1,,,,,0,42,42,28,,,,,,,,,,,,,,,,,,,,,,,,,,,,,,,,,,,,,,,,,,,,,,,,,,,,,,0.6,,,,,,,,,,,,,,,,,,,,,,,,,,,,,,,,0,0,335.2270775771467,335.75920807383955,335.77583577274345,335.2270775771467,335.77583577274345,335.2270775771467,None,335.77583577274345,None,,,,,,,,,2019_May_27_1756,Probabilistic Learning,3.1.0,61.47887568136281,
,,,hiragana2.xlsx,hiragana21.xlsx,hiragana22.xlsx,,,,,,,W,V,F,E,None,None,,,,,0,0,0,1,,,,,0,43,43,5,,,,,,,,,,,,,,,,,,,,,,,,,,,,,,,,,,,,,,,,,,,,,,,,,,,,,,0.6,,,,,,,,,,,,,,,,,,,,,,,,,,,,,,,,0,0,337.26117716380395,338.0092209035065,338.0259024867555,337.26117716380395,338.0259024867555,337.26117716380395,None,338.0259024867555,None,,,,,,,,,2019_May_27_1756,Probabilistic Learning,3.1.0,61.47887568136281,
,,,hiragana2.xlsx,hiragana21.xlsx,hiragana22.xlsx,,,,,,,J,s,B,A,None,None,,,,,0,0,0,1,,,,,0,44,44,1,,,,,,,,,,,,,,,,,,,,,,,,,,,,,,,,,,,,,,,,,,,,,,,,,,,,,,0.7,,,,,,,,,,,,,,,,,,,,,,,,,,,,,,,,0,0,339.51010563399177,340.426289735944,340.4428481548093,339.51010563399177,340.4428481548093,339.51010563399177,None,340.4428481548093,None,,,,,,,,,2019_May_27_1756,Probabilistic Learning,3.1.0,61.47887568136281,
,,,hiragana2.xlsx,hiragana21.xlsx,hiragana22.xlsx,,,,,,,J,o,B,C,None,m,,,,,0,0,0,1,,,,,0,45,45,22,,,,,,,,,,,,,,,,,,,,,,,,,,,,,,,,,,,,,,,,,,,,,,,,,,,,,,0.3,,,,,,,,,,,,,,,,,,,,,,,,,,,,,,,,0,0,341.9261065289611,342.72613075131085,342.74298681737855,341.9261065289611,342.74298681737855,341.9261065289611,None,342.74298681737855,None,,,,,,,,,2019_May_27_1756,Probabilistic Learning,3.1.0,61.47887568136281,
,,,hiragana2.xlsx,hiragana21.xlsx,hiragana22.xlsx,,,,,,,W,s,F,A,m,None,,,,,0,0,0,1,,,,,1,0,46,21,,,,,,,,,,,,,,,,,,,,,,,,,,,,,,,,,,,,,,,,,,,,,,,,,,,,,,0.5,,,,,,,,,,,,,,,,,,,,,,,,,,,,,,,,0,0,344.22713813302107,345.0762546340702,345.092989588622,344.22713813302107,345.092989588622,344.22713813302107,None,345.092989588622,None,,,,,,,,,2019_May_27_1756,Probabilistic Learning,3.1.0,61.47887568136281,
,,,hiragana2.xlsx,hiragana21.xlsx,hiragana22.xlsx,,,,,,,s,V,A,E,c,None,,,,,0,0,0,1,,,,,1,1,47,15,,,,,,,,,,,,,,,,,,,,,,,,,,,,,,,,,,,,,,,,,,,,,,,,,,,,,,0.4,,,,,,,,,,,,,,,,,,,,,,,,,,,,,,,,0,0,346.577646391117,347.52649162278976,347.52649162278976,346.577646391117,347.52649162278976,346.577646391117,None,347.52649162278976,None,,,,,,,,,2019_May_27_1756,Probabilistic Learning,3.1.0,61.47887568136281,
,,,hiragana2.xlsx,hiragana21.xlsx,hiragana22.xlsx,,,,,,,s,W,A,F,c,None,,,,,0,0,0,1,,,,,1,2,48,19,,,,,,,,,,,,,,,,,,,,,,,,,,,,,,,,,,,,,,,,,,,,,,,,,,,,,,0.5,,,,,,,,,,,,,,,,,,,,,,,,,,,,,,,,0,0,349.0266363408882,349.72672399284784,349.7437519758241,349.0266363408882,349.7437519758241,349.0266363408882,None,349.7437519758241,None,,,,,,,,,2019_May_27_1756,Probabilistic Learning,3.1.0,61.47887568136281,
,,,hiragana2.xlsx,hiragana21.xlsx,hiragana22.xlsx,,,,,,,b,o,D,C,None,None,,,,,0,0,0,1,,,,,1,3,49,3,,,,,,,,,,,,,,,,,,,,,,,,,,,,,,,,,,,,,,,,,,,,,,,,,,,,,,0.3,,,,,,,,,,,,,,,,,,,,,,,,,,,,,,,,0,0,351.22778371942695,351.7933723217575,351.7933723217575,351.22778371942695,351.7933723217575,351.22778371942695,None,351.7933723217575,None,,,,,,,,,2019_May_27_1756,Probabilistic Learning,3.1.0,61.47887568136281,
,,,hiragana2.xlsx,hiragana21.xlsx,hiragana22.xlsx,,,,,,,J,o,B,C,None,m,,,,,0,0,0,1,,,,,1,4,50,22,,,,,,,,,,,,,,,,,,,,,,,,,,,,,,,,,,,,,,,,,,,,,,,,,,,,,,0.5,,,,,,,,,,,,,,,,,,,,,,,,,,,,,,,,0,0,353.29333024064545,353.87658009584993,353.87658009584993,353.29333024064545,353.87658009584993,353.29333024064545,None,353.87658009584993,None,,,,,,,,,2019_May_27_1756,Probabilistic Learning,3.1.0,61.47887568136281,
,,,hiragana2.xlsx,hiragana21.xlsx,hiragana22.xlsx,,,,,,,b,W,d,f,None,None,,,,,0,0,0,1,,,,,1,5,51,44,,,,,,,,,,,,,,,,,,,,,,,,,,,,,,,,,,,,,,,,,,,,,,,,,,,,,,0.7,,,,,,,,,,,,,,,,,,,,,,,,,,,,,,,,0,0,355.3779272058746,356.0437972387299,356.06060403899755,355.3779272058746,356.06060403899755,355.3779272058746,None,356.06060403899755,None,,,,,,,,,2019_May_27_1756,Probabilistic Learning,3.1.0,61.47887568136281,
,,,hiragana2.xlsx,hiragana21.xlsx,hiragana22.xlsx,,,,,,,V,o,e,c,None,None,,,,,0,0,0,1,,,,,1,6,52,39,,,,,,,,,,,,,,,,,,,,,,,,,,,,,,,,,,,,,,,,,,,,,,,,,,,,,,0.7,,,,,,,,,,,,,,,,,,,,,,,,,,,,,,,,0,0,357.54508071381133,358.24364369385876,358.26021391595714,357.54508071381133,358.26021391595714,357.54508071381133,None,358.26021391595714,None,,,,,,,,,2019_May_27_1756,Probabilistic Learning,3.1.0,61.47887568136281,
,,,hiragana2.xlsx,hiragana21.xlsx,hiragana22.xlsx,,,,,,,J,o,B,C,None,m,,,,,0,0,0,1,,,,,1,7,53,23,,,,,,,,,,,,,,,,,,,,,,,,,,,,,,,,,,,,,,,,,,,,,,,,,,,,,,0.8,,,,,,,,,,,,,,,,,,,,,,,,,,,,,,,,0,0,359.7435831379844,360.34369829669595,360.36031983734574,359.7435831379844,360.36031983734574,359.7435831379844,None,360.36031983734574,None,,,,,,,,,2019_May_27_1756,Probabilistic Learning,3.1.0,61.47887568136281,
,,,hiragana2.xlsx,hiragana21.xlsx,hiragana22.xlsx,,,,,,,o,s,C,A,m,None,,,,,0,0,0,1,,,,,1,8,54,8,,,,,,,,,,,,,,,,,,,,,,,,,,,,,,,,,,,,,,,,,,,,,,,,,,,,,,0.5,,,,,,,,,,,,,,,,,,,,,,,,,,,,,,,,0,0,361.8443556863349,362.4771668713074,362.49379405693617,361.8443556863349,362.49379405693617,361.8443556863349,None,362.49379405693617,None,,,,,,,,,2019_May_27_1756,Probabilistic Learning,3.1.0,61.47887568136281,
,,,hiragana2.xlsx,hiragana21.xlsx,hiragana22.xlsx,,,,,,,V,s,E,A,m,None,,,,,0,0,0,1,,,,,1,9,55,17,,,,,,,,,,,,,,,,,,,,,,,,,,,,,,,,,,,,,,,,,,,,,,,,,,,,,,0.5,,,,,,,,,,,,,,,,,,,,,,,,,,,,,,,,0,0,363.97719304368366,364.9270944095915,364.94370312057436,363.97719304368366,364.94370312057436,363.97719304368366,None,364.94370312057436,None,,,,,,,,,2019_May_27_1756,Probabilistic Learning,3.1.0,61.47887568136281,
,,,hiragana2.xlsx,hiragana21.xlsx,hiragana22.xlsx,,,,,,,J,W,B,F,None,m,,,,,0,0,0,1,,,,,1,10,56,34,,,,,,,,,,,,,,,,,,,,,,,,,,,,,,,,,,,,,,,,,,,,,,,,,,,,,,0.4,,,,,,,,,,,,,,,,,,,,,,,,,,,,,,,,0,0,366.4286052255193,367.0106455043424,367.0279706212459,366.4286052255193,367.0279706212459,366.4286052255193,None,367.0279706212459,None,,,,,,,,,2019_May_27_1756,Probabilistic Learning,3.1.0,61.47887568136281,
,,,hiragana2.xlsx,hiragana21.xlsx,hiragana22.xlsx,,,,,,,J,s,B,A,None,None,,,,,0,0,0,1,,,,,1,11,57,1,,,,,,,,,,,,,,,,,,,,,,,,,,,,,,,,,,,,,,,,,,,,,,,,,,,,,,0.7,,,,,,,,,,,,,,,,,,,,,,,,,,,,,,,,0,0,368.5113526729401,369.17738179303706,369.19419167249,368.5113526729401,369.19419167249,368.5113526729401,None,369.19419167249,None,,,,,,,,,2019_May_27_1756,Probabilistic Learning,3.1.0,61.47887568136281,
,,,hiragana2.xlsx,hiragana21.xlsx,hiragana22.xlsx,,,,,,,s,V,A,E,c,None,,,,,0,0,0,1,,,,,1,12,58,14,,,,,,,,,,,,,,,,,,,,,,,,,,,,,,,,,,,,,,,,,,,,,,,,,,,,,,0.6,,,,,,,,,,,,,,,,,,,,,,,,,,,,,,,,0,0,370.678365055006,371.2108465700876,371.22760051244404,370.678365055006,371.22760051244404,370.678365055006,None,371.22760051244404,None,,,,,,,,,2019_May_27_1756,Probabilistic Learning,3.1.0,61.47887568136281,
,,,hiragana2.xlsx,hiragana21.xlsx,hiragana22.xlsx,,,,,,,W,s,F,A,m,None,,,,,0,0,0,1,,,,,1,13,59,20,,,,,,,,,,,,,,,,,,,,,,,,,,,,,,,,,,,,,,,,,,,,,,,,,,,,,,0.4,,,,,,,,,,,,,,,,,,,,,,,,,,,,,,,,0,0,372.71252827649005,373.227627197979,373.2444170631934,372.71252827649005,373.2444170631934,372.71252827649005,None,373.2444170631934,None,,,,,,,,,2019_May_27_1756,Probabilistic Learning,3.1.0,61.47887568136281,
,,,hiragana2.xlsx,hiragana21.xlsx,hiragana22.xlsx,,,,,,,o,s,C,A,m,None,,,,,0,0,0,1,,,,,1,14,60,9,,,,,,,,,,,,,,,,,,,,,,,,,,,,,,,,,,,,,,,,,,,,,,,,,,,,,,0.3,,,,,,,,,,,,,,,,,,,,,,,,,,,,,,,,0,0,374.7278052731417,375.37788666423876,375.39432499790564,374.7278052731417,375.39432499790564,374.7278052731417,None,375.39432499790564,None,,,,,,,,,2019_May_27_1756,Probabilistic Learning,3.1.0,61.47887568136281,
,,,hiragana2.xlsx,hiragana21.xlsx,hiragana22.xlsx,,,,,,,s,J,A,B,None,None,,,,,0,0,0,1,,,,,1,15,61,0,,,,,,,,,,,,,,,,,,,,,,,,,,,,,,,,,,,,,,,,,,,,,,,,,,,,,,0.6,,,,,,,,,,,,,,,,,,,,,,,,,,,,,,,,0,0,376.87924660381395,377.82922392105684,377.84459431725554,376.87924660381395,377.84459431725554,376.87924660381395,None,377.84459431725554,None,,,,,,,,,2019_May_27_1756,Probabilistic Learning,3.1.0,61.47887568136281,
,,,hiragana2.xlsx,hiragana21.xlsx,hiragana22.xlsx,,,,,,,W,V,F,E,None,None,,,,,0,0,0,1,,,,,1,16,62,5,,,,,,,,,,,,,,,,,,,,,,,,,,,,,,,,,,,,,,,,,,,,,,,,,,,,,,0.5,,,,,,,,,,,,,,,,,,,,,,,,,,,,,,,,0,0,379.3288559676148,380.0779394196579,380.09469438833185,379.3288559676148,380.09469438833185,379.3288559676148,None,380.09469438833185,None,,,,,,,,,2019_May_27_1756,Probabilistic Learning,3.1.0,61.47887568136281,
,,,hiragana2.xlsx,hiragana21.xlsx,hiragana22.xlsx,,,,,,,J,b,B,D,None,m,,,,,0,0,0,1,,,,,1,17,63,26,,,,,,,,,,,,,,,,,,,,,,,,,,,,,,,,,,,,,,,,,,,,,,,,,,,,,,0.5,,,,,,,,,,,,,,,,,,,,,,,,,,,,,,,,0,0,381.5794676837977,382.42811667360365,382.4447069099406,381.5794676837977,382.4447069099406,381.5794676837977,None,382.4447069099406,None,,,,,,,,,2019_May_27_1756,Probabilistic Learning,3.1.0,61.47887568136281,
,,,hiragana2.xlsx,hiragana21.xlsx,hiragana22.xlsx,,,,,,,J,b,B,D,None,m,,,,,0,0,0,1,,,,,1,18,64,27,,,,,,,,,,,,,,,,,,,,,,,,,,,,,,,,,,,,,,,,,,,,,,,,,,,,,,0.7,,,,,,,,,,,,,,,,,,,,,,,,,,,,,,,,0,0,383.9284969435539,384.5949504674645,384.6114426854765,383.9284969435539,384.6114426854765,383.9284969435539,None,384.6114426854765,None,,,,,,,,,2019_May_27_1756,Probabilistic Learning,3.1.0,61.47887568136281,
,,,hiragana2.xlsx,hiragana21.xlsx,hiragana22.xlsx,,,,,,,b,J,D,B,None,c,,,,,0,0,0,1,,,,,1,19,65,28,,,,,,,,,,,,,,,,,,,,,,,,,,,,,,,,,,,,,,,,,,,,,,,,,,,,,,0.5,,,,,,,,,,,,,,,,,,,,,,,,,,,,,,,,0,0,386.0956181208603,386.92853389284573,386.94486548402347,386.0956181208603,386.94486548402347,386.0956181208603,None,386.94486548402347,None,,,,,,,,,2019_May_27_1756,Probabilistic Learning,3.1.0,61.47887568136281,
,,,hiragana2.xlsx,hiragana21.xlsx,hiragana22.xlsx,,,,,,,b,s,D,A,m,None,,,,,0,0,0,1,,,,,1,20,66,12,,,,,,,,,,,,,,,,,,,,,,,,,,,,,,,,,,,,,,,,,,,,,,,,,,,,,,0.5,,,,,,,,,,,,,,,,,,,,,,,,,,,,,,,,0,0,388.42865757038817,389.3617870324524,389.37846399703994,388.42865757038817,389.37846399703994,388.42865757038817,None,389.37846399703994,None,,,,,,,,,2019_May_27_1756,Probabilistic Learning,3.1.0,61.47887568136281,
,,,hiragana2.xlsx,hiragana21.xlsx,hiragana22.xlsx,,,,,,,W,J,F,B,None,c,,,,,0,0,0,1,,,,,1,21,67,36,,,,,,,,,,,,,,,,,,,,,,,,,,,,,,,,,,,,,,,,,,,,,,,,,,,,,,0.4,,,,,,,,,,,,,,,,,,,,,,,,,,,,,,,,0,0,390.86574163415935,391.4285539070843,391.44518519821577,390.86574163415935,391.44518519821577,390.86574163415935,None,391.44518519821577,None,,,,,,,,,2019_May_27_1756,Probabilistic Learning,3.1.0,61.47887568136281,
,,,hiragana2.xlsx,hiragana21.xlsx,hiragana22.xlsx,,,,,,,b,V,d,e,None,None,,,,,0,0,0,1,,,,,1,22,68,42,,,,,,,,,,,,,,,,,,,,,,,,,,,,,,,,,,,,,,,,,,,,,,,,,,,,,,0.5,,,,,,,,,,,,,,,,,,,,,,,,,,,,,,,,0,0,392.9295294712065,393.4453601941932,393.4453601941932,392.9295294712065,393.4453601941932,392.9295294712065,None,393.4453601941932,None,,,,,,,,,2019_May_27_1756,Probabilistic Learning,3.1.0,61.47887568136281,
,,,hiragana2.xlsx,hiragana21.xlsx,hiragana22.xlsx,,,,,,,W,o,f,c,None,None,,,,,0,0,0,1,,,,,1,23,69,41,,,,,,,,,,,,,,,,,,,,,,,,,,,,,,,,,,,,,,,,,,,,,,,,,,,,,,0.4,,,,,,,,,,,,,,,,,,,,,,,,,,,,,,,,0,0,394.9457399508683,395.64515276486054,395.66181228123605,394.9457399508683,395.66181228123605,394.9457399508683,None,395.66181228123605,None,,,,,,,,,2019_May_27_1756,Probabilistic Learning,3.1.0,61.47887568136281,
,,,hiragana2.xlsx,hiragana21.xlsx,hiragana22.xlsx,,,,,,,J,V,B,E,None,m,,,,,0,0,0,1,,,,,1,24,70,31,,,,,,,,,,,,,,,,,,,,,,,,,,,,,,,,,,,,,,,,,,,,,,,,,,,,,,0.6,,,,,,,,,,,,,,,,,,,,,,,,,,,,,,,,0,0,397.1466004590038,397.94554648024496,397.9621002804488,397.1466004590038,397.9621002804488,397.1466004590038,None,397.9621002804488,None,,,,,,,,,2019_May_27_1756,Probabilistic Learning,3.1.0,61.47887568136281,
,,,hiragana2.xlsx,hiragana21.xlsx,hiragana22.xlsx,,,,,,,V,b,e,d,None,None,,,,,0,0,0,1,,,,,1,25,71,43,,,,,,,,,,,,,,,,,,,,,,,,,,,,,,,,,,,,,,,,,,,,,,,,,,,,,,0.7,,,,,,,,,,,,,,,,,,,,,,,,,,,,,,,,0,0,399.44635320664383,400.04559133260045,400.06218362168875,399.44635320664383,400.06218362168875,399.44635320664383,None,400.06218362168875,None,,,,,,,,,2019_May_27_1756,Probabilistic Learning,3.1.0,61.47887568136281,
,,,hiragana2.xlsx,hiragana21.xlsx,hiragana22.xlsx,,,,,,,s,b,A,D,c,None,,,,,0,0,0,1,,,,,1,26,72,10,,,,,,,,,,,,,,,,,,,,,,,,,,,,,,,,,,,,,,,,,,,,,,,,,,,,,,0.8,,,,,,,,,,,,,,,,,,,,,,,,,,,,,,,,0,0,401.5455764501821,402.31235707807355,402.32893602445256,401.5455764501821,402.32893602445256,401.5455764501821,None,402.32893602445256,None,,,,,,,,,2019_May_27_1756,Probabilistic Learning,3.1.0,61.47887568136281,
,,,hiragana2.xlsx,hiragana21.xlsx,hiragana22.xlsx,,,,,,,b,s,D,A,m,None,,,,,0,0,0,1,,,,,1,27,73,13,,,,,,,,,,,,,,,,,,,,,,,,,,,,,,,,,,,,,,,,,,,,,,,,,,,,,,0.6,,,,,,,,,,,,,,,,,,,,,,,,,,,,,,,,0,0,403.81333161587827,404.79566831025295,404.8123842768837,403.81333161587827,404.8123842768837,403.81333161587827,None,404.8123842768837,None,,,,,,,,,2019_May_27_1756,Probabilistic Learning,3.1.0,61.47887568136281,
,,,hiragana2.xlsx,hiragana21.xlsx,hiragana22.xlsx,,,,,,,W,J,F,B,None,c,,,,,0,0,0,1,,,,,1,28,74,37,,,,,,,,,,,,,,,,,,,,,,,,,,,,,,,,,,,,,,,,,,,,,,,,,,,,,,0.7,,,,,,,,,,,,,,,,,,,,,,,,,,,,,,,,0,0,406.2973084487021,406.863203935558,406.87967254710384,406.2973084487021,406.87967254710384,406.2973084487021,None,406.87967254710384,None,,,,,,,,,2019_May_27_1756,Probabilistic Learning,3.1.0,61.47887568136281,
,,,hiragana2.xlsx,hiragana21.xlsx,hiragana22.xlsx,,,,,,,V,s,E,A,m,None,,,,,0,0,0,1,,,,,1,29,75,16,,,,,,,,,,,,,,,,,,,,,,,,,,,,,,,,,,,,,,,,,,,,,,,,,,,,,,0.4,,,,,,,,,,,,,,,,,,,,,,,,,,,,,,,,0,0,408.3635446901899,409.3460548410658,409.3625865742797,408.3635446901899,409.3625865742797,408.3635446901899,None,409.3625865742797,None,,,,,,,,,2019_May_27_1756,Probabilistic Learning,3.1.0,61.47887568136281,
,,,hiragana2.xlsx,hiragana21.xlsx,hiragana22.xlsx,,,,,,,J,W,B,F,None,m,,,,,0,0,0,1,,,,,1,30,76,35,,,,,,,,,,,,,,,,,,,,,,,,,,,,,,,,,,,,,,,,,,,,,,,,,,,,,,0.4,,,,,,,,,,,,,,,,,,,,,,,,,,,,,,,,0,0,410.84618621633854,411.5294829766499,411.5463061989285,410.84618621633854,411.5463061989285,410.84618621633854,None,411.5463061989285,None,,,,,,,,,2019_May_27_1756,Probabilistic Learning,3.1.0,61.47887568136281,
,,,hiragana2.xlsx,hiragana21.xlsx,hiragana22.xlsx,,,,,,,V,J,E,B,None,c,,,,,0,0,0,1,,,,,1,31,77,33,,,,,,,,,,,,,,,,,,,,,,,,,,,,,,,,,,,,,,,,,,,,,,,,,,,,,,0.5,,,,,,,,,,,,,,,,,,,,,,,,,,,,,,,,0,0,413.03067407850176,413.6961802634178,413.71291881008074,413.03067407850176,413.71291881008074,413.03067407850176,None,413.71291881008074,None,,,,,,,,,2019_May_27_1756,Probabilistic Learning,3.1.0,61.47887568136281,
,,,hiragana2.xlsx,hiragana21.xlsx,hiragana22.xlsx,,,,,,,V,J,E,B,None,c,,,,,0,0,0,1,,,,,1,32,78,32,,,,,,,,,,,,,,,,,,,,,,,,,,,,,,,,,,,,,,,,,,,,,,,,,,,,,,0.5,,,,,,,,,,,,,,,,,,,,,,,,,,,,,,,,0,0,415.19632036285475,416.19633986381814,416.2130609622691,415.19632036285475,416.2130609622691,415.19632036285475,None,416.2130609622691,None,,,,,,,,,2019_May_27_1756,Probabilistic Learning,3.1.0,61.47887568136281,
,,,hiragana2.xlsx,hiragana21.xlsx,hiragana22.xlsx,,,,,,,o,V,C,E,None,None,,,,,0,0,0,1,,,,,1,33,79,38,,,,,,,,,,,,,,,,,,,,,,,,,,,,,,,,,,,,,,,,,,,,,,,,,,,,,,0.5,,,,,,,,,,,,,,,,,,,,,,,,,,,,,,,,0,0,417.6975581643637,418.44637886586133,418.4633221733384,417.6975581643637,418.4633221733384,417.6975581643637,None,418.4633221733384,None,,,,,,,,,2019_May_27_1756,Probabilistic Learning,3.1.0,61.47887568136281,
,,,hiragana2.xlsx,hiragana21.xlsx,hiragana22.xlsx,,,,,,,s,o,A,C,c,None,,,,,0,0,0,1,,,,,1,34,80,7,,,,,,,,,,,,,,,,,,,,,,,,,,,,,,,,,,,,,,,,,,,,,,,,,,,,,,0.5,,,,,,,,,,,,,,,,,,,,,,,,,,,,,,,,0,0,419.9473441663431,420.5798130570911,420.59659317182377,419.9473441663431,420.59659317182377,419.9473441663431,None,420.59659317182377,None,,,,,,,,,2019_May_27_1756,Probabilistic Learning,3.1.0,61.47887568136281,
,,,hiragana2.xlsx,hiragana21.xlsx,hiragana22.xlsx,,,,,,,o,J,C,B,None,c,,,,,0,0,0,1,,,,,1,35,81,24,,,,,,,,,,,,,,,,,,,,,,,,,,,,,,,,,,,,,,,,,,,,,,,,,,,,,,0.8,,,,,,,,,,,,,,,,,,,,,,,,,,,,,,,,0,0,422.0809677228099,422.89730044302996,422.9144608275965,422.0809677228099,422.9144608275965,422.0809677228099,None,422.9144608275965,None,,,,,,,,,2019_May_27_1756,Probabilistic Learning,3.1.0,61.47887568136281,
,,,hiragana2.xlsx,hiragana21.xlsx,hiragana22.xlsx,,,,,,,b,J,D,B,None,c,,,,,0,0,0,1,,,,,1,36,82,29,,,,,,,,,,,,,,,,,,,,,,,,,,,,,,,,,,,,,,,,,,,,,,,,,,,,,,0.6,,,,,,,,,,,,,,,,,,,,,,,,,,,,,,,,0,0,424.39830628514756,425.2800674941391,425.2968553066021,424.39830628514756,425.2968553066021,424.39830628514756,None,425.2968553066021,None,,,,,,,,,2019_May_27_1756,Probabilistic Learning,3.1.0,61.47887568136281,
,,,hiragana2.xlsx,hiragana21.xlsx,hiragana22.xlsx,,,,,,,o,W,c,f,None,None,,,,,0,0,0,1,,,,,1,37,83,40,,,,,,,,,,,,,,,,,,,,,,,,,,,,,,,,,,,,,,,,,,,,,,,,,,,,,,0.5,,,,,,,,,,,,,,,,,,,,,,,,,,,,,,,,0,0,426.7821541032754,427.4636290578637,427.48012024955824,426.7821541032754,427.48012024955824,426.7821541032754,None,427.48012024955824,None,,,,,,,,,2019_May_27_1756,Probabilistic Learning,3.1.0,61.47887568136281,
,,,hiragana2.xlsx,hiragana21.xlsx,hiragana22.xlsx,,,,,,,W,b,f,d,None,None,,,,,0,0,0,1,,,,,1,38,84,45,,,,,,,,,,,,,,,,,,,,,,,,,,,,,,,,,,,,,,,,,,,,,,,,,,,,,,0.7,,,,,,,,,,,,,,,,,,,,,,,,,,,,,,,,0,0,428.9643172385404,429.61356727033854,429.61356727033854,428.9643172385404,429.61356727033854,428.9643172385404,None,429.61356727033854,None,,,,,,,,,2019_May_27_1756,Probabilistic Learning,3.1.0,61.47887568136281,
,,,hiragana2.xlsx,hiragana21.xlsx,hiragana22.xlsx,,,,,,,o,J,C,B,None,c,,,,,0,0,0,1,,,,,1,39,85,25,,,,,,,,,,,,,,,,,,,,,,,,,,,,,,,,,,,,,,,,,,,,,,,,,,,,,,0.3,,,,,,,,,,,,,,,,,,,,,,,,,,,,,,,,0,0,431.1150729544461,431.9477311077062,431.9646728755906,431.1150729544461,431.9646728755906,431.1150729544461,None,431.9646728755906,None,,,,,,,,,2019_May_27_1756,Probabilistic Learning,3.1.0,61.47887568136281,
,,,hiragana2.xlsx,hiragana21.xlsx,hiragana22.xlsx,,,,,,,o,b,C,D,None,None,,,,,0,0,0,1,,,,,1,40,86,2,,,,,,,,,,,,,,,,,,,,,,,,,,,,,,,,,,,,,,,,,,,,,,,,,,,,,,0.5,,,,,,,,,,,,,,,,,,,,,,,,,,,,,,,,0,0,433.4468535617925,434.347356277518,434.3638351528207,433.4468535617925,434.3638351528207,433.4468535617925,None,434.3638351528207,None,,,,,,,,,2019_May_27_1756,Probabilistic Learning,3.1.0,61.47887568136281,
,,,hiragana2.xlsx,hiragana21.xlsx,hiragana22.xlsx,,,,,,,s,o,A,C,c,None,,,,,0,0,0,1,,,,,1,41,87,6,,,,,,,,,,,,,,,,,,,,,,,,,,,,,,,,,,,,,,,,,,,,,,,,,,,,,,0.3,,,,,,,,,,,,,,,,,,,,,,,,,,,,,,,,0,0,435.84843242599163,436.7973351343535,436.7973351343535,435.84843242599163,436.7973351343535,435.84843242599163,None,436.7973351343535,None,,,,,,,,,2019_May_27_1756,Probabilistic Learning,3.1.0,61.47887568136281,
,,,hiragana2.xlsx,hiragana21.xlsx,hiragana22.xlsx,,,,,,,V,W,E,F,None,None,,,,,0,0,0,1,,,,,1,42,88,4,,,,,,,,,,,,,,,,,,,,,,,,,,,,,,,,,,,,,,,,,,,,,,,,,,,,,,0.8,,,,,,,,,,,,,,,,,,,,,,,,,,,,,,,,0,0,438.2981705990387,439.114144089981,439.114144089981,438.2981705990387,439.114144089981,438.2981705990387,None,439.114144089981,None,,,,,,,,,2019_May_27_1756,Probabilistic Learning,3.1.0,61.47887568136281,
,,,hiragana2.xlsx,hiragana21.xlsx,hiragana22.xlsx,,,,,,,s,b,A,D,c,None,,,,,0,0,0,1,,,,,1,43,89,11,,,,,,,,,,,,,,,,,,,,,,,,,,,,,,,,,,,,,,,,,,,,,,,,,,,,,,0.4,,,,,,,,,,,,,,,,,,,,,,,,,,,,,,,,0,0,440.6150986136636,441.4975716099143,441.51454930065665,440.6150986136636,441.51454930065665,440.6150986136636,None,441.51454930065665,None,,,,,,,,,2019_May_27_1756,Probabilistic Learning,3.1.0,61.47887568136281,
,,,hiragana2.xlsx,hiragana21.xlsx,hiragana22.xlsx,,,,,,,J,V,B,E,None,m,,,,,0,0,0,1,,,,,1,44,90,30,,,,,,,,,,,,,,,,,,,,,,,,,,,,,,,,,,,,,,,,,,,,,,,,,,,,,,0.3,,,,,,,,,,,,,,,,,,,,,,,,,,,,,,,,0,0,442.9983028981369,443.5978078801418,443.6142287654802,442.9983028981369,443.6142287654802,442.9983028981369,None,443.6142287654802,None,,,,,,,,,2019_May_27_1756,Probabilistic Learning,3.1.0,61.47887568136281,
,,,hiragana2.xlsx,hiragana21.xlsx,hiragana22.xlsx,,,,,,,s,W,A,F,c,None,,,,,0,0,0,1,,,,,1,45,91,18,,,,,,,,,,,,,,,,,,,,,,,,,,,,,,,,,,,,,,,,,,,,,,,,,,,,,,0.7,,,,,,,,,,,,,,,,,,,,,,,,,,,,,,,,0,0,445.10082899872214,445.68126506207045,445.69857067789417,445.10082899872214,445.69857067789417,445.10082899872214,None,445.69857067789417,None,,,,,,,,,2019_May_27_1756,Probabilistic Learning,3.1.0,61.47887568136281,
,,,,,,,,,,,,,,,,,,,,,,,,,,,,,,,,,,,,,,,,,,,,,,,,,,,,,,,,,,,,,,,,,,,,,,,,,,,,,,,,,,,,,,,,,,,,,,,,,,,,,,,,,,,,,,,,,,,,,,,,,,,,,,,,,,447.1813302364899,None,space,15.801174269290641,447.1813302364899,None,,,,,,,
