letter10,letter20,corrAns0,letterset,letterset2,letterset3,letter1,letter2,corrAns,letterA,letterC,letterE,letter3,letter4,letterA2,letterB2,pickA,avoidB,preparation.thisRepN,preparation.thisTrialN,preparation.thisN,preparation.thisIndex,letterMaster.thisRepN,letterMaster.thisTrialN,letterMaster.thisN,letterMaster.thisIndex,practice.thisRepN,practice.thisTrialN,practice.thisN,practice.thisIndex,test.thisRepN,test.thisTrialN,test.thisN,test.thisIndex,text.started,text.stopped,welc_resp.keys,welc_resp.rt,welc_resp.started,welc_resp.stopped,instr1.started,instr1.stopped,intr0_resp.keys,intr0_resp.rt,intr0_resp.started,intr0_resp.stopped,fixation0.started,fixation0.stopped,letter0_1.started,letter0_1.stopped,letter0_2.started,letter0_2.stopped,prep_resp.keys,prep_resp.corr,prep_resp.rt,prep_resp.started,prep_resp.stopped,prep_feedb.started,prep_feedb.stopped,prep_outro.started,prep_outro.stopped,outro_resp.keys,outro_resp.rt,outro_resp.started,outro_resp.stopped,pract_intr.started,pract_intr.stopped,instr1_resp.keys,instr1_resp.rt,instr1_resp.started,instr1_resp.stopped,resp1,resp2,resp3,response1,response2,response3,Corr1,Corr2,Corr3,jitter,myCount1,myCount2,myCount3,myCount,fixation1.started,fixation1.stopped,letter1_1.started,letter1_1.stopped,letter1_2.started,letter1_2.stopped,resp.keys,resp.corr,resp.rt,resp.started,resp.stopped,blank_feed.started,blank_feed.stopped,feedb.started,feedb.stopped,instr2.started,instr2.stopped,instr2_resp.keys,instr2_resp.rt,instr2_resp.started,instr2_resp.stopped,instr3.started,instr3.stopped,instr3_resp.keys,instr3_resp.rt,instr3_resp.started,instr3_resp.stopped,posLB,negLB,fixation2.started,fixation2.stopped,letter2_1.started,letter2_1.stopped,letter2_2.started,letter2_2.stopped,test_resp.keys,test_resp.rt,test_resp.started,test_resp.stopped,check.started,check.stopped,check_resp.keys,check_resp.rt,check_resp.started,check_resp.stopped,participant,,date,expName,psychopyVersion,frameRate,
,,,,,,,,,,,,,,,,,,,,,,,,,,,,,,,,,,10.84867721493356,None,space,0.5732827812898904,10.84867721493356,None,,,,,,,,,,,,,,,,,,,,,,,,,,,,,,,,,,,,,,,,,,,,,,,,,,,,,,,,,,,,,,,,,,,,,,,,,,,,,,,,,,,,,,,,,,,,,2019_May_27_1746,Probabilistic Learning,3.1.0,59.952803593185514,
,,,,,,,,,,,,,,,,,,,,,,,,,,,,,,,,,,,,,,,,11.438236676622182,None,space,0.3343424255726859,11.438236676622182,None,,,,,,,,,,,,,,,,,,,,,,,,,,,,,,,,,,,,,,,,,,,,,,,,,,,,,,,,,,,,,,,,,,,,,,,,,,,,,,,,,,,,,,,2019_May_27_1746,Probabilistic Learning,3.1.0,59.952803593185514,
U,L,c,,,,,,,,,,,,,,,,0,0,0,0,,,,,,,,,,,,,,,,,,,,,,,,,11.945076916133985,12.438771928311326,12.455098387785256,None,12.455098387785256,None,c,1,0.8168577082687989,12.455098387785256,None,13.309861460584216,None,,,,,,,,,,,,,,,,,,,,,,,,,,,,,,,,,,,,,,,,,,,,,,,,,,,,,,,,,,,,,,,,,,,,,,,,,,2019_May_27_1746,Probabilistic Learning,3.1.0,59.952803593185514,
U,L,c,,,,,,,,,,,,,,,,0,1,1,4,,,,,,,,,,,,,,,,,,,,,,,,,13.905181421083398,14.405011556926183,14.421601793263108,None,14.421601793263108,None,c,1,0.3169290409423411,14.421601793263108,None,14.755036908201873,None,,,,,,,,,,,,,,,,,,,,,,,,,,,,,,,,,,,,,,,,,,,,,,,,,,,,,,,,,,,,,,,,,,,,,,,,,,2019_May_27_1746,Probabilistic Learning,3.1.0,59.952803593185514,
U,L,m,,,,,,,,,,,,,,,,0,2,2,9,,,,,,,,,,,,,,,,,,,,,,,,,15.355370170320384,15.85505610133987,15.871845453395508,None,15.871845453395508,None,c,0,0.30026798509061337,15.871845453395508,None,16.18826900725253,None,,,,,,,,,,,,,,,,,,,,,,,,,,,,,,,,,,,,,,,,,,,,,,,,,,,,,,,,,,,,,,,,,,,,,,,,,,2019_May_27_1746,Probabilistic Learning,3.1.0,59.952803593185514,
L,U,c,,,,,,,,,,,,,,,,0,3,3,8,,,,,,,,,,,,,,,,,,,,,,,,,16.788718762458302,17.288606374990195,17.305068828281946,None,17.305068828281946,None,m,0,0.3345697664190084,17.305068828281946,None,17.65525275375694,None,,,,,,,,,,,,,,,,,,,,,,,,,,,,,,,,,,,,,,,,,,,,,,,,,,,,,,,,,,,,,,,,,,,,,,,,,,2019_May_27_1746,Probabilistic Learning,3.1.0,59.952803593185514,
L,U,m,,,,,,,,,,,,,,,,0,4,4,3,,,,,,,,,,,,,,,,,,,,,,,,,18.255160072585568,18.75522781291511,18.771790337283164,None,18.771790337283164,None,m,1,0.3175130451563746,18.771790337283164,None,19.104957056697458,None,,,,,,,,,,,,,,,,,,,,,,,,,,,,,,,,,,,,,,,,,,,,,,,,,,,,,,,,,,,,,,,,,,,,,,,,,,2019_May_27_1746,Probabilistic Learning,3.1.0,59.952803593185514,
U,L,c,,,,,,,,,,,,,,,,0,5,5,1,,,,,,,,,,,,,,,,,,,,,,,,,19.705278002424166,20.205255422275513,20.22243992658332,None,20.22243992658332,None,c,1,0.3337183928815648,20.22243992658332,None,20.571892563719302,None,,,,,,,,,,,,,,,,,,,,,,,,,,,,,,,,,,,,,,,,,,,,,,,,,,,,,,,,,,,,,,,,,,,,,,,,,,2019_May_27_1746,Probabilistic Learning,3.1.0,59.952803593185514,
L,U,m,,,,,,,,,,,,,,,,0,6,6,7,,,,,,,,,,,,,,,,,,,,,,,,,21.17204929026775,21.671959482948296,21.688654409023002,None,21.688654409023002,None,m,1,0.3356479676440358,21.688654409023002,None,22.03990165318828,None,,,,,,,,,,,,,,,,,,,,,,,,,,,,,,,,,,,,,,,,,,,,,,,,,,,,,,,,,,,,,,,,,,,,,,,,,,2019_May_27_1746,Probabilistic Learning,3.1.0,59.952803593185514,
U,L,c,,,,,,,,,,,,,,,,0,7,7,6,,,,,,,,,,,,,,,,,,,,,,,,,22.6387210204266,23.138913464732468,23.155490871402435,None,23.155490871402435,None,c,1,0.31698805722407997,23.155490871402435,None,23.488660156726837,None,,,,,,,,,,,,,,,,,,,,,,,,,,,,,,,,,,,,,,,,,,,,,,,,,,,,,,,,,,,,,,,,,,,,,,,,,,2019_May_27_1746,Probabilistic Learning,3.1.0,59.952803593185514,
U,L,c,,,,,,,,,,,,,,,,0,8,8,5,,,,,,,,,,,,,,,,,,,,,,,,,24.088806106476113,24.589082199847326,24.605424054781906,None,24.605424054781906,None,c,1,0.366927090799436,24.605424054781906,None,24.988841310958378,None,,,,,,,,,,,,,,,,,,,,,,,,,,,,,,,,,,,,,,,,,,,,,,,,,,,,,,,,,,,,,,,,,,,,,,,,,,2019_May_27_1746,Probabilistic Learning,3.1.0,59.952803593185514,
L,U,m,,,,,,,,,,,,,,,,0,9,9,2,,,,,,,,,,,,,,,,,,,,,,,,,25.588864609482698,26.089056027471088,26.10552053351421,None,26.10552053351421,None,m,1,0.33373943355400115,26.10552053351421,None,26.455614651553333,None,,,,,,,,,,,,,,,,,,,,,,,,,,,,,,,,,,,,,,,,,,,,,,,,,,,,,,,,,,,,,,,,,,,,,,,,,,2019_May_27_1746,Probabilistic Learning,3.1.0,59.952803593185514,
,,,,,,,,,,,,,,,,,,,,,,,,,,,,,,,,,,,,,,,,,,,,,,,,,,,,,,,,,,,27.056737705133855,None,space,1.2993144877254963,27.056737705133855,None,,,,,,,,,,,,,,,,,,,,,,,,,,,,,,,,,,,,,,,,,,,,,,,,,,,,,,,,,,,,,,,,,,,,2019_May_27_1746,Probabilistic Learning,3.1.0,59.952803593185514,
,,,hiragana2.xlsx,hiragana21.xlsx,hiragana22.xlsx,J,s,c,m,None,None,,,,,,,,,,,0,0,0,1,0,0,0,9,,,,,,,,,,,,,,,,,,,,,,,,,,,,,,,,,,,,28.376270132139325,None,space,1.2304430427029729,28.376270132139325,None,1,0,0,[1],[0],[0],[],[],[],0.7,1,0,0,1,29.64561155193951,30.339282341883518,30.355952121899463,None,30.355952121899463,None,m,0,0.3689084970392287,30.355952121899463,None,30.74224988394417,31.089132491964847,31.10579919279553,None,,,,,,,,,,,,,,,,,,,,,,,,,,,,,,,,,2019_May_27_1746,Probabilistic Learning,3.1.0,59.952803593185514,
,,,hiragana2.xlsx,hiragana21.xlsx,hiragana22.xlsx,V,W,c,None,None,c,,,,,,,,,,,0,0,0,1,0,1,1,21,,,,,,,,,,,,,,,,,,,,,,,,,,,,,,,,,,,,,,,,,,0,0,0,"[1, 0]","[0, 0]","[0, 0]",[],[],[],0.7,2,0,0,1,31.694182435050607,32.38906536740251,32.40585471945815,None,32.40585471945815,None,m,0,0.3671046526869759,32.40585471945815,None,32.78920423518866,33.13926448300481,33.15600097703282,None,,,,,,,,,,,,,,,,,,,,,,,,,,,,,,,,,2019_May_27_1746,Probabilistic Learning,3.1.0,59.952803593185514,
,,,hiragana2.xlsx,hiragana21.xlsx,hiragana22.xlsx,s,J,c,c,None,None,,,,,,,,,,,0,0,0,1,0,2,2,2,,,,,,,,,,,,,,,,,,,,,,,,,,,,,,,,,,,,,,,,,,1,0,0,"[1, 0, 1]","[0, 0, 0]","[0, 0, 0]",[],[],[],0.6,3,0,0,1,33.73919438198209,34.33927464415319,34.35601319081616,None,34.35601319081616,None,c,1,0.4688543047523126,34.35601319081616,None,34.84072849643417,35.18925175606273,35.20613810000941,None,,,,,,,,,,,,,,,,,,,,,,,,,,,,,,,,,2019_May_27_1746,Probabilistic Learning,3.1.0,59.952803593185514,
,,,hiragana2.xlsx,hiragana21.xlsx,hiragana22.xlsx,s,J,c,c,None,None,,,,,,,,,,,0,0,0,1,0,3,3,0,,,,,,,,,,,,,,,,,,,,,,,,,,,,,,,,,,,,,,,,,,1,0,0,"[1, 0, 1, 1]","[0, 0, 0, 0]","[0, 0, 0, 0]",[],[],[],0.8,4,0,0,1,35.78928685793653,36.58982118591666,36.60640115849674,None,36.60640115849674,None,c,1,0.4022952700033784,36.60640115849674,None,37.024877143558115,37.372650127043016,37.3892911686562,None,,,,,,,,,,,,,,,,,,,,,,,,,,,,,,,,,2019_May_27_1746,Probabilistic Learning,3.1.0,59.952803593185514,
,,,hiragana2.xlsx,hiragana21.xlsx,hiragana22.xlsx,s,J,c,c,None,None,,,,,,,,,,,0,0,0,1,0,4,4,1,,,,,,,,,,,,,,,,,,,,,,,,,,,,,,,,,,,,,,,,,,1,0,0,"[1, 0, 1, 1, 1]","[0, 0, 0, 0, 0]","[0, 0, 0, 0, 0]",[],[],[],0.5,5,0,0,1,37.97282686783001,38.4727278231876,38.4894032481825,None,38.4894032481825,None,c,1,0.41724126250483096,38.4894032481825,None,38.92251064337324,39.272775138844736,39.28953575249761,None,,,,,,,,,,,,,,,,,,,,,,,,,,,,,,,,,2019_May_27_1746,Probabilistic Learning,3.1.0,59.952803593185514,
,,,hiragana2.xlsx,hiragana21.xlsx,hiragana22.xlsx,o,b,c,None,c,None,,,,,,,,,,,0,0,0,1,0,5,5,10,,,,,,,,,,,,,,,,,,,,,,,,,,,,,,,,,,,,,,,,,,0,0,0,"[1, 0, 1, 1, 1, 0]","[0, 0, 0, 0, 0, 0]","[0, 0, 0, 0, 0, 0]",[],[],[],0.5,6,0,0,1,39.87514523125719,40.37264088972006,40.38931272237096,None,40.38931272237096,None,None,0,,40.38931272237096,None,41.896708227694035,42.2236264096573,42.24024641071446,None,,,,,,,,,,,,,,,,,,,,,,,,,,,,,,,,,2019_May_27_1746,Probabilistic Learning,3.1.0,59.952803593185514,
,,,hiragana2.xlsx,hiragana21.xlsx,hiragana22.xlsx,W,V,c,None,None,m,,,,,,,,,,,0,0,0,1,0,6,6,29,,,,,,,,,,,,,,,,,,,,,,,,,,,,,,,,,,,,,,,,,,0,0,1,"[1, 0, 1, 1, 1, 0, 0]","[0, 0, 0, 0, 0, 0, 0]","[0, 0, 0, 0, 0, 0, 1]",[],[],[],0.6,7,0,0,1,42.82709728332702,43.42295865365304,43.43966486980207,None,43.43966486980207,None,m,0,0.5005783591186628,43.43966486980207,None,43.95715625851881,44.306284562917426,44.32301541196648,None,,,,,,,,,,,,,,,,,,,,,,,,,,,,,,,,,2019_May_27_1746,Probabilistic Learning,3.1.0,59.952803593185514,
,,,hiragana2.xlsx,hiragana21.xlsx,hiragana22.xlsx,o,b,m,None,c,None,,,,,,,,,,,0,0,0,1,0,7,7,19,,,,,,,,,,,,,,,,,,,,,,,,,,,,,,,,,,,,,,,,,,0,1,0,"[1, 0, 1, 1, 1, 0, 0, 0]","[0, 0, 0, 0, 0, 0, 0, 1]","[0, 0, 0, 0, 0, 0, 1, 0]",[],[],[],0.5,8,0,0,1,44.906657853513025,45.406486449879594,45.424186191638,None,45.424186191638,None,c,0,0.46606514579616487,45.424186191638,None,45.90648388385307,46.25649999792222,46.27315130329225,None,,,,,,,,,,,,,,,,,,,,,,,,,,,,,,,,,2019_May_27_1746,Probabilistic Learning,3.1.0,59.952803593185514,
,,,hiragana2.xlsx,hiragana21.xlsx,hiragana22.xlsx,J,s,m,m,None,None,,,,,,,,,,,0,0,0,1,0,8,8,5,,,,,,,,,,,,,,,,,,,,,,,,,,,,,,,,,,,,,,,,,,1,0,0,"[1, 0, 1, 1, 1, 0, 0, 0, 1]","[0, 0, 0, 0, 0, 0, 0, 1, 0]","[0, 0, 0, 0, 0, 0, 1, 0, 0]",[],[],[],0.6,9,0,0,1,46.85660643246956,47.456761619541794,47.473177886218764,None,47.473177886218764,None,m,1,0.46720338938757777,47.473177886218764,None,47.95746519579552,48.30661351431627,48.32340491912328,None,,,,,,,,,,,,,,,,,,,,,,,,,,,,,,,,,2019_May_27_1746,Probabilistic Learning,3.1.0,59.952803593185514,
,,,hiragana2.xlsx,hiragana21.xlsx,hiragana22.xlsx,b,o,c,None,m,None,,,,,,,,,,,0,0,0,1,0,9,9,18,,,,,,,,,,,,,,,,,,,,,,,,,,,,,,,,,,,,,,,,,,0,1,0,"[1, 0, 1, 1, 1, 0, 0, 0, 1, 0]","[0, 0, 0, 0, 0, 0, 0, 1, 0, 1]","[0, 0, 0, 0, 0, 0, 1, 0, 0, 0]",[],[],[],0.6,10,0,0,1,48.90675587183796,49.50680996151641,49.523319627856836,None,49.523319627856836,None,m,0,0.5166851755930111,49.523319627856836,None,50.05674283695407,50.40682515176013,50.423287091893144,None,,,,,,,,,,,,,,,,,,,,,,,,,,,,,,,,,2019_May_27_1746,Probabilistic Learning,3.1.0,59.952803593185514,
,,,hiragana2.xlsx,hiragana21.xlsx,hiragana22.xlsx,b,o,m,None,m,None,,,,,,,,,,,0,0,0,1,0,10,10,14,,,,,,,,,,,,,,,,,,,,,,,,,,,,,,,,,,,,,,,,,,0,1,0,"[1, 0, 1, 1, 1, 0, 0, 0, 1, 0]","[0, 0, 0, 0, 0, 0, 0, 1, 0, 1]","[0, 0, 0, 0, 0, 0, 1, 0, 0, 0]",[],[],[],0.8,11,0,0,1,51.006798671442084,51.80665918777231,51.823421854292974,None,51.823421854292974,None,m,1,0.45104320195969194,51.823421854292974,None,52.29190256050788,52.64002297015395,52.65674560808111,None,,,,,,,,,,,,,,,,,,,,,,,,,,,,,,,,,2019_May_27_1746,Probabilistic Learning,3.1.0,59.952803593185514,
,,,hiragana2.xlsx,hiragana21.xlsx,hiragana22.xlsx,J,s,m,m,None,None,,,,,,,,,,,0,0,0,1,0,11,11,7,,,,,,,,,,,,,,,,,,,,,,,,,,,,,,,,,,,,,,,,,,1,0,0,"[1, 0, 1, 1, 1, 0, 0, 0, 1, 0]","[0, 0, 0, 0, 0, 0, 0, 1, 0, 1]","[0, 0, 0, 0, 0, 0, 1, 0, 0, 0]",[],[],[],0.4,12,0,0,1,53.24000470072497,53.64008865773212,53.65709611331113,None,53.65709611331113,None,m,1,0.4165156192611903,53.65709611331113,None,54.09021736448631,54.44019088416826,54.456882217898965,None,,,,,,,,,,,,,,,,,,,,,,,,,,,,,,,,,2019_May_27_1746,Probabilistic Learning,3.1.0,59.952803593185514,
,,,hiragana2.xlsx,hiragana21.xlsx,hiragana22.xlsx,o,b,c,None,c,None,,,,,,,,,,,0,0,0,1,0,12,12,12,,,,,,,,,,,,,,,,,,,,,,,,,,,,,,,,,,,,,,,,,,0,1,0,"[1, 0, 1, 1, 1, 0, 0, 0, 1, 0]","[0, 0, 0, 0, 0, 0, 0, 1, 0, 1]","[0, 0, 0, 0, 0, 0, 1, 0, 0, 0]",[],[],[],0.3,13,0,0,1,55.04384342522826,55.34023122047074,55.35689894773532,None,55.35689894773532,None,c,1,0.3847402463434264,55.35689894773532,None,55.75698649708647,56.106857379782014,56.123688812949695,None,,,,,,,,,,,,,,,,,,,,,,,,,,,,,,,,,2019_May_27_1746,Probabilistic Learning,3.1.0,59.952803593185514,
,,,hiragana2.xlsx,hiragana21.xlsx,hiragana22.xlsx,W,V,c,None,None,m,,,,,,,,,,,0,0,0,1,0,13,13,28,,,,,,,,,,,,,,,,,,,,,,,,,,,,,,,,,,,,,,,,,,0,0,1,"[1, 0, 1, 1, 1, 0, 0, 0, 1, 0]","[0, 0, 0, 0, 0, 0, 0, 1, 0, 1]","[0, 0, 0, 0, 0, 0, 1, 0, 0, 0]",[],[],[],0.3,14,0,0,1,56.70722553844098,57.00692183570936,57.0242556767771,None,57.0242556767771,None,m,0,0.3832571425009519,57.0242556767771,None,57.42404557892587,57.7737440316705,57.79043331264984,None,,,,,,,,,,,,,,,,,,,,,,,,,,,,,,,,,2019_May_27_1746,Probabilistic Learning,3.1.0,59.952803593185514,
,,,hiragana2.xlsx,hiragana21.xlsx,hiragana22.xlsx,s,J,c,c,None,None,,,,,,,,,,,0,0,0,1,0,14,14,3,,,,,,,,,,,,,,,,,,,,,,,,,,,,,,,,,,,,,,,,,,0,0,0,"[1, 0, 1, 1, 1, 0, 0, 0, 1, 0]","[0, 0, 0, 0, 0, 0, 0, 1, 0, 1]","[0, 0, 0, 0, 0, 0, 1, 0, 0, 0]",[],[],[],0.4,15,0,0,1,58.37385508476291,58.77370708226226,58.79039841610938,None,58.79039841610938,None,m,0,0.3171060896711424,58.79039841610938,None,59.1251991156023,59.47352787817363,59.49042551219463,None,,,,,,,,,,,,,,,,,,,,,,,,,,,,,,,,,2019_May_27_1746,Probabilistic Learning,3.1.0,59.952803593185514,
,,,hiragana2.xlsx,hiragana21.xlsx,hiragana22.xlsx,W,V,m,None,None,m,,,,,,,,,,,0,0,0,1,0,15,15,25,,,,,,,,,,,,,,,,,,,,,,,,,,,,,,,,,,,,,,,,,,0,0,1,"[1, 0, 1, 1, 1, 0, 0, 0, 1, 0]","[0, 0, 0, 0, 0, 0, 0, 1, 0, 1]","[0, 0, 0, 0, 0, 0, 1, 0, 0, 0]",[],[],[],0.7,16,0,0,1,60.07393195992336,60.7740822203923,60.79060368996579,None,60.79060368996579,None,m,1,0.40034157584887,60.79060368996579,None,61.20761299296282,61.55715338466689,61.57394017081242,None,,,,,,,,,,,,,,,,,,,,,,,,,,,,,,,,,2019_May_27_1746,Probabilistic Learning,3.1.0,59.952803593185514,
,,,hiragana2.xlsx,hiragana21.xlsx,hiragana22.xlsx,b,o,m,None,m,None,,,,,,,,,,,0,0,0,1,0,16,16,16,,,,,,,,,,,,,,,,,,,,,,,,,,,,,,,,,,,,,,,,,,0,1,0,"[1, 0, 1, 1, 1, 0, 0, 0, 1, 0]","[0, 0, 0, 0, 0, 0, 0, 1, 0, 1]","[0, 0, 0, 0, 0, 0, 1, 0, 0, 0]",[],[],[],0.5,17,0,0,1,62.1574645799119,62.657208500779234,62.67451360344421,None,62.67451360344421,None,m,1,0.4998650324996561,62.67451360344421,None,63.190693805227056,63.54113637574483,63.557270390796475,None,,,,,,,,,,,,,,,,,,,,,,,,,,,,,,,,,2019_May_27_1746,Probabilistic Learning,3.1.0,59.952803593185514,
,,,hiragana2.xlsx,hiragana21.xlsx,hiragana22.xlsx,V,W,m,None,None,c,,,,,,,,,,,0,0,0,1,0,17,17,26,,,,,,,,,,,,,,,,,,,,,,,,,,,,,,,,,,,,,,,,,,0,0,1,"[1, 0, 1, 1, 1, 0, 0, 0, 1, 0]","[0, 0, 0, 0, 0, 0, 0, 1, 0, 1]","[0, 0, 0, 0, 0, 0, 1, 0, 0, 0]",[],[],[],0.5,18,0,0,1,64.1406670169672,64.64069780800492,64.65747638314497,None,64.65747638314497,None,c,0,0.39968008059076965,64.65747638314497,None,65.07406744069885,65.42387930711266,65.44052240147721,None,,,,,,,,,,,,,,,,,,,,,,,,,,,,,,,,,2019_May_27_1746,Probabilistic Learning,3.1.0,59.952803593185514,
,,,hiragana2.xlsx,hiragana21.xlsx,hiragana22.xlsx,V,W,c,None,None,c,,,,,,,,,,,0,0,0,1,0,18,18,20,,,,,,,,,,,,,,,,,,,,,,,,,,,,,,,,,,,,,,,,,,0,0,1,"[1, 0, 1, 1, 1, 0, 0, 0, 1, 0]","[0, 0, 0, 0, 0, 0, 0, 1, 0, 1]","[0, 0, 0, 0, 0, 0, 1, 0, 0, 0]",[],[],[],0.5,19,0,0,1,66.02408581261989,66.52458103594836,66.54085463727824,None,66.54085463727824,None,c,1,0.36690707656089216,66.54085463727824,None,66.92418465204537,67.27421256923117,67.2909701038152,None,,,,,,,,,,,,,,,,,,,,,,,,,,,,,,,,,2019_May_27_1746,Probabilistic Learning,3.1.0,59.952803593185514,
,,,hiragana2.xlsx,hiragana21.xlsx,hiragana22.xlsx,b,o,c,None,m,None,,,,,,,,,,,0,0,0,1,0,19,19,17,,,,,,,,,,,,,,,,,,,,,,,,,,,,,,,,,,,,,,,,,,0,1,0,"[1, 0, 1, 1, 1, 0, 0, 0, 1, 0]","[0, 0, 0, 0, 0, 0, 0, 1, 0, 1]","[0, 0, 0, 0, 0, 0, 1, 0, 0, 0]",[],[],[],0.6,20,0,0,1,67.87456892477348,68.47428995755035,68.49085402151104,None,68.49085402151104,None,m,0,0.45049358112737536,68.49085402151104,None,68.95765199500602,69.30736686952878,69.32411773269996,None,,,,,,,,,,,,,,,,,,,,,,,,,,,,,,,,,2019_May_27_1746,Probabilistic Learning,3.1.0,59.952803593185514,
,,,hiragana2.xlsx,hiragana21.xlsx,hiragana22.xlsx,b,o,m,None,m,None,,,,,,,,,,,0,0,0,1,0,20,20,15,,,,,,,,,,,,,,,,,,,,,,,,,,,,,,,,,,,,,,,,,,0,1,0,"[1, 0, 1, 1, 1, 0, 0, 0, 1, 0]","[0, 0, 0, 0, 0, 0, 0, 1, 0, 1]","[0, 0, 0, 0, 0, 0, 1, 0, 0, 0]",[],[],[],0.3,21,0,0,1,69.90759287611581,70.20785521622747,70.22439721319824,None,70.22439721319824,None,m,1,0.5000271988101304,70.22439721319824,None,70.74099001544528,71.09107900166418,71.10774621577002,None,,,,,,,,,,,,,,,,,,,,,,,,,,,,,,,,,2019_May_27_1746,Probabilistic Learning,3.1.0,59.952803593185514,
,,,hiragana2.xlsx,hiragana21.xlsx,hiragana22.xlsx,V,W,m,None,None,c,,,,,,,,,,,0,0,0,1,0,21,21,27,,,,,,,,,,,,,,,,,,,,,,,,,,,,,,,,,,,,,,,,,,0,0,1,"[1, 0, 1, 1, 1, 0, 0, 0, 1, 0]","[0, 0, 0, 0, 0, 0, 0, 1, 0, 1]","[0, 0, 0, 0, 0, 0, 1, 0, 0, 0]",[],[],[],0.7,22,0,0,1,71.69114900007844,72.3910478000762,72.40785562666133,None,72.40785562666133,None,c,0,0.5504768512910232,72.40785562666133,None,72.97436950122938,73.32482233538758,73.34149622090627,None,,,,,,,,,,,,,,,,,,,,,,,,,,,,,,,,,2019_May_27_1746,Probabilistic Learning,3.1.0,59.952803593185514,
,,,hiragana2.xlsx,hiragana21.xlsx,hiragana22.xlsx,V,W,c,None,None,c,,,,,,,,,,,0,0,0,1,0,22,22,22,,,,,,,,,,,,,,,,,,,,,,,,,,,,,,,,,,,,,,,,,,0,0,1,"[1, 0, 1, 1, 1, 0, 0, 0, 1, 0]","[0, 0, 0, 0, 0, 0, 0, 1, 0, 1]","[0, 0, 0, 0, 0, 0, 1, 0, 0, 0]",[],[],[],0.5,23,0,0,1,73.92432372504845,74.42465678195003,74.4411228277022,None,74.4411228277022,None,c,1,0.36713698331732303,74.4411228277022,None,74.82446823792998,75.17444586311467,75.19134503661189,None,,,,,,,,,,,,,,,,,,,,,,,,,,,,,,,,,2019_May_27_1746,Probabilistic Learning,3.1.0,59.952803593185514,
,,,hiragana2.xlsx,hiragana21.xlsx,hiragana22.xlsx,s,J,m,c,None,None,,,,,,,,,,,0,0,0,1,0,23,23,8,,,,,,,,,,,,,,,,,,,,,,,,,,,,,,,,,,,,,,,,,,0,0,0,"[1, 0, 1, 1, 1, 0, 0, 0, 1, 0]","[0, 0, 0, 0, 0, 0, 0, 1, 0, 1]","[0, 0, 0, 0, 0, 0, 1, 0, 0, 0]",[],[],[],0.7,24,0,0,1,75.7746328675421,76.4746471340768,76.49119221023284,None,76.49119221023284,None,m,1,0.38363022776320577,76.49119221023284,None,76.8912946418859,77.24150884523988,77.25813038577326,None,,,,,,,,,,,,,,,,,,,,,,,,,,,,,,,,,2019_May_27_1746,Probabilistic Learning,3.1.0,59.952803593185514,
,,,hiragana2.xlsx,hiragana21.xlsx,hiragana22.xlsx,J,s,m,m,None,None,,,,,,,,,,,0,0,0,1,0,24,24,6,,,,,,,,,,,,,,,,,,,,,,,,,,,,,,,,,,,,,,,,,,1,0,0,"[1, 0, 1, 1, 1, 0, 0, 0, 1, 0]","[0, 0, 0, 0, 0, 0, 0, 1, 0, 1]","[0, 0, 0, 0, 0, 0, 1, 0, 0, 0]",[],[],[],0.6,25,0,0,1,77.84165325539652,78.4412254645722,78.45806664833799,None,78.45806664833799,None,m,1,0.4172966864425689,78.45806664833799,None,78.8913690536283,79.2413492447231,79.25816784834024,None,,,,,,,,,,,,,,,,,,,,,,,,,,,,,,,,,2019_May_27_1746,Probabilistic Learning,3.1.0,59.952803593185514,
,,,hiragana2.xlsx,hiragana21.xlsx,hiragana22.xlsx,o,b,c,None,c,None,,,,,,,,,,,0,0,0,1,0,25,25,11,,,,,,,,,,,,,,,,,,,,,,,,,,,,,,,,,,,,,,,,,,0,1,0,"[1, 0, 1, 1, 1, 0, 0, 0, 1, 0]","[0, 0, 0, 0, 0, 0, 0, 1, 0, 1]","[0, 0, 0, 0, 0, 0, 1, 0, 0, 0]",[],[],[],0.7,26,0,0,1,79.8425148925744,80.54150535550434,80.55814280488994,None,80.55814280488994,None,c,1,0.46845402067992836,80.55814280488994,None,81.04126980376896,81.39222401950974,81.40817841992248,None,,,,,,,,,,,,,,,,,,,,,,,,,,,,,,,,,2019_May_27_1746,Probabilistic Learning,3.1.0,59.952803593185514,
,,,hiragana2.xlsx,hiragana21.xlsx,hiragana22.xlsx,W,V,m,None,None,m,,,,,,,,,,,0,0,0,1,0,26,26,24,,,,,,,,,,,,,,,,,,,,,,,,,,,,,,,,,,,,,,,,,,0,0,1,"[1, 0, 1, 1, 1, 0, 0, 0, 1, 0]","[0, 0, 0, 0, 0, 0, 0, 1, 0, 1]","[0, 0, 0, 0, 0, 0, 1, 0, 0, 0]",[],[],[],0.6,27,0,0,1,81.99130203179084,82.59145619242918,82.60819268645719,None,82.60819268645719,None,m,1,0.4681327670114115,82.60819268645719,None,83.09159731830005,83.441673474852,83.45924543368164,None,,,,,,,,,,,,,,,,,,,,,,,,,,,,,,,,,2019_May_27_1746,Probabilistic Learning,3.1.0,59.952803593185514,
,,,hiragana2.xlsx,hiragana21.xlsx,hiragana22.xlsx,W,V,m,None,None,m,,,,,,,,,,,0,0,0,1,0,27,27,23,,,,,,,,,,,,,,,,,,,,,,,,,,,,,,,,,,,,,,,,,,0,0,1,"[1, 0, 1, 1, 1, 0, 0, 0, 1, 0]","[0, 0, 0, 0, 0, 0, 0, 1, 0, 1]","[0, 0, 0, 0, 0, 0, 1, 0, 0, 0]",[],[],[],0.6,28,0,0,1,84.04162236163393,84.6416010131361,84.65845553972758,None,84.65845553972758,None,m,1,0.38415726856328547,84.65845553972758,None,85.05819514975883,85.40850429225247,85.42496777197812,None,,,,,,,,,,,,,,,,,,,,,,,,,,,,,,,,,2019_May_27_1746,Probabilistic Learning,3.1.0,59.952803593185514,
,,,hiragana2.xlsx,hiragana21.xlsx,hiragana22.xlsx,o,b,c,None,c,None,,,,,,,,,,,0,0,0,1,0,28,28,13,,,,,,,,,,,,,,,,,,,,,,,,,,,,,,,,,,,,,,,,,,0,1,0,"[1, 0, 1, 1, 1, 0, 0, 0, 1, 0]","[0, 0, 0, 0, 0, 0, 0, 1, 0, 1]","[0, 0, 0, 0, 0, 0, 1, 0, 0, 0]",[],[],[],0.5,29,0,0,1,86.00877648545429,86.50867744081188,86.52501570340246,None,86.52501570340246,None,c,1,0.4671669533709064,86.52501570340246,None,87.00878367002588,87.3586360780755,87.37520168151241,None,,,,,,,,,,,,,,,,,,,,,,,,,,,,,,,,,2019_May_27_1746,Probabilistic Learning,3.1.0,59.952803593185514,
,,,hiragana2.xlsx,hiragana21.xlsx,hiragana22.xlsx,J,s,m,m,None,None,,,,,,,,,,,0,0,0,1,0,29,29,4,,,,,,,,,,,,,,,,,,,,,,,,,,,,,,,,,,,,,,,,,,1,0,0,"[1, 0, 1, 1, 1, 0, 0, 0, 1, 0]","[0, 0, 0, 0, 0, 0, 0, 1, 0, 1]","[0, 0, 0, 0, 0, 0, 1, 0, 0, 0]",[],[],[],0.4,30,0,0,1,87.9585418573115,88.35851342696697,88.37524838140234,None,88.37524838140234,None,m,1,0.41718173306435347,88.37524838140234,None,88.8085892755771,89.15860333689488,89.17520024464466,None,,,,,,,,,,,,,,,,,,,,,,,,,,,,,,,,,2019_May_27_1746,Probabilistic Learning,3.1.0,59.952803593185514,
,,,hiragana2.xlsx,hiragana21.xlsx,hiragana22.xlsx,s,J,c,c,None,None,,,,,,,,,,,0,0,0,1,1,0,30,2,,,,,,,,,,,,,,,,,,,,,,,,,,,,,,,,,,,,,,,,,,0,0,0,"[1, 0, 1, 1, 1, 0, 0, 0, 1, 0]","[0, 0, 0, 0, 0, 0, 0, 1, 0, 1]","[0, 0, 0, 0, 0, 0, 1, 0, 0, 0]",[],[],[],0.4,31,0,0,1,89.75887860916555,90.15864079934545,90.1752715773182,None,90.1752715773182,None,m,0,0.36683830979745835,90.1752715773182,None,90.55946733476594,90.90892972238362,90.92536600329913,None,,,,,,,,,,,,,,,,,,,,,,,,,,,,,,,,,2019_May_27_1746,Probabilistic Learning,3.1.0,59.952803593185514,
,,,hiragana2.xlsx,hiragana21.xlsx,hiragana22.xlsx,J,s,m,m,None,None,,,,,,,,,,,0,0,0,1,1,1,31,4,,,,,,,,,,,,,,,,,,,,,,,,,,,,,,,,,,,,,,,,,,1,0,0,"[1, 0, 1, 1, 1, 0, 0, 0, 1, 0]","[0, 0, 0, 0, 0, 0, 0, 1, 0, 1]","[0, 0, 0, 0, 0, 0, 1, 0, 0, 0]",[],[],[],0.3,32,0,0,1,91.50881856656633,91.8086354623083,91.82554797863122,None,91.82554797863122,None,m,1,0.4678217770997435,91.82554797863122,None,92.31004364113323,92.65888045669999,92.67546761385165,None,,,,,,,,,,,,,,,,,,,,,,,,,,,,,,,,,2019_May_27_1746,Probabilistic Learning,3.1.0,59.952803593185514,
,,,hiragana2.xlsx,hiragana21.xlsx,hiragana22.xlsx,W,V,m,None,None,m,,,,,,,,,,,0,0,0,1,1,2,32,25,,,,,,,,,,,,,,,,,,,,,,,,,,,,,,,,,,,,,,,,,,0,0,1,"[1, 0, 1, 1, 1, 0, 0, 0, 1, 0]","[0, 0, 0, 0, 0, 0, 0, 1, 0, 1]","[0, 0, 0, 0, 0, 0, 1, 0, 0, 0]",[],[],[],0.8,33,0,0,1,93.25894737592898,94.05910759221297,94.0757332383655,None,94.0757332383655,None,m,1,0.4665629349183291,94.0757332383655,None,94.5588345779106,94.90888148301747,94.9254778776085,None,,,,,,,,,,,,,,,,,,,,,,,,,,,,,,,,,2019_May_27_1746,Probabilistic Learning,3.1.0,59.952803593185514,
,,,hiragana2.xlsx,hiragana21.xlsx,hiragana22.xlsx,b,o,m,None,m,None,,,,,,,,,,,0,0,0,1,1,3,33,14,,,,,,,,,,,,,,,,,,,,,,,,,,,,,,,,,,,,,,,,,,0,1,0,"[1, 0, 1, 1, 1, 0, 0, 0, 1, 0]","[0, 0, 0, 0, 0, 0, 0, 1, 0, 1]","[0, 0, 0, 0, 0, 0, 1, 0, 0, 0]",[],[],[],0.6,34,0,0,1,95.50910441041924,96.10868637019303,96.12555372633506,None,96.12555372633506,None,m,1,0.4350903411395848,96.12555372633506,None,96.57559724431485,96.92553740704898,96.94230417895596,None,,,,,,,,,,,,,,,,,,,,,,,,,,,,,,,,,2019_May_27_1746,Probabilistic Learning,3.1.0,59.952803593185514,
,,,hiragana2.xlsx,hiragana21.xlsx,hiragana22.xlsx,V,W,c,None,None,c,,,,,,,,,,,0,0,0,1,1,4,34,21,,,,,,,,,,,,,,,,,,,,,,,,,,,,,,,,,,,,,,,,,,0,0,0,"[1, 0, 1, 1, 1, 0, 0, 0, 1, 0]","[0, 0, 0, 0, 0, 0, 0, 1, 0, 1]","[0, 0, 0, 0, 0, 0, 1, 0, 0, 0]",[],[],[],0.5,35,0,0,1,97.52571260824334,98.02690473641269,98.0428770983126,None,98.0428770983126,None,m,0,0.46656036900822073,98.0428770983126,None,98.52556224516593,98.87570511584636,98.8924067132175,None,,,,,,,,,,,,,,,,,,,,,,,,,,,,,,,,,2019_May_27_1746,Probabilistic Learning,3.1.0,59.952803593185514,
,,,hiragana2.xlsx,hiragana21.xlsx,hiragana22.xlsx,o,b,m,None,c,None,,,,,,,,,,,0,0,0,1,1,5,35,19,,,,,,,,,,,,,,,,,,,,,,,,,,,,,,,,,,,,,,,,,,0,1,0,"[1, 0, 1, 1, 1, 0, 0, 0, 1, 0]","[0, 0, 0, 0, 0, 0, 0, 1, 0, 1]","[0, 0, 0, 0, 0, 0, 1, 0, 0, 0]",[],[],[],0.8,36,0,0,1,99.47588236979209,100.27576136088464,100.29248245933559,None,100.29248245933559,None,c,0,0.5006045316113159,100.29248245933559,None,100.80898494110443,101.15907187457196,101.17574268090539,None,,,,,,,,,,,,,,,,,,,,,,,,,,,,,,,,,2019_May_27_1746,Probabilistic Learning,3.1.0,59.952803593185514,
,,,hiragana2.xlsx,hiragana21.xlsx,hiragana22.xlsx,o,b,c,None,c,None,,,,,,,,,,,0,0,0,1,1,6,36,10,,,,,,,,,,,,,,,,,,,,,,,,,,,,,,,,,,,,,,,,,,0,1,0,"[1, 0, 1, 1, 1, 0, 0, 0, 1, 0]","[0, 0, 0, 0, 0, 0, 0, 1, 0, 1]","[0, 0, 0, 0, 0, 0, 1, 0, 0, 0]",[],[],[],0.7,37,0,0,1,101.75909619953018,102.45920181297697,102.47581308986992,None,102.47581308986992,None,c,1,0.4169184692436829,102.47581308986992,None,102.90927355620079,103.25902999867685,103.27569669950753,None,,,,,,,,,,,,,,,,,,,,,,,,,,,,,,,,,2019_May_27_1746,Probabilistic Learning,3.1.0,59.952803593185514,
,,,hiragana2.xlsx,hiragana21.xlsx,hiragana22.xlsx,J,s,c,m,None,None,,,,,,,,,,,0,0,0,1,1,7,37,9,,,,,,,,,,,,,,,,,,,,,,,,,,,,,,,,,,,,,,,,,,1,0,0,"[1, 0, 1, 1, 1, 0, 0, 0, 1, 0]","[0, 0, 0, 0, 0, 0, 0, 1, 0, 1]","[0, 0, 0, 0, 0, 0, 1, 0, 0, 0]",[],[],[],0.6,38,0,0,1,103.85949874157086,104.45929521252401,104.47590648953337,None,104.47590648953337,None,m,0,0.4674338095355779,104.47590648953337,None,104.95926544780377,105.30930362874642,105.32605089969002,None,,,,,,,,,,,,,,,,,,,,,,,,,,,,,,,,,2019_May_27_1746,Probabilistic Learning,3.1.0,59.952803593185514,
,,,hiragana2.xlsx,hiragana21.xlsx,hiragana22.xlsx,V,W,m,None,None,c,,,,,,,,,,,0,0,0,1,1,8,38,27,,,,,,,,,,,,,,,,,,,,,,,,,,,,,,,,,,,,,,,,,,0,0,1,"[1, 0, 1, 1, 1, 0, 0, 0, 1, 0]","[0, 0, 0, 0, 0, 0, 0, 1, 0, 1]","[0, 0, 0, 0, 0, 0, 1, 0, 0, 0]",[],[],[],0.3,39,0,0,1,105.90933821746148,106.20948406448588,106.22602452198043,None,106.22602452198043,None,c,0,0.48554050677921623,106.22602452198043,None,106.72602195607033,107.07684479642194,107.09271657420322,None,,,,,,,,,,,,,,,,,,,,,,,,,,,,,,,,,2019_May_27_1746,Probabilistic Learning,3.1.0,59.952803593185514,
,,,hiragana2.xlsx,hiragana21.xlsx,hiragana22.xlsx,o,b,c,None,c,None,,,,,,,,,,,0,0,0,1,1,9,39,12,,,,,,,,,,,,,,,,,,,,,,,,,,,,,,,,,,,,,,,,,,0,1,0,"[1, 0, 1, 1, 1, 0, 0, 0, 1, 0]","[0, 0, 0, 0, 0, 0, 0, 1, 0, 1]","[0, 0, 0, 0, 0, 0, 1, 0, 0, 0]",[],[],[],0.4,40,0,0,1,107.67607317189686,108.07615661574528,108.09275249706116,None,108.09275249706116,None,c,1,0.4006643689936027,108.09275249706116,None,108.50943387509324,108.85939507826697,108.87621676095296,None,,,,,,,,,,,,,,,,,,,,,,,,,,,,,,,,,2019_May_27_1746,Probabilistic Learning,3.1.0,59.952803593185514,
,,,hiragana2.xlsx,hiragana21.xlsx,hiragana22.xlsx,V,W,c,None,None,c,,,,,,,,,,,0,0,0,1,1,10,40,22,,,,,,,,,,,,,,,,,,,,,,,,,,,,,,,,,,,,,,,,,,0,0,1,"[1, 0, 1, 1, 1, 0, 0, 0, 1, 0]","[0, 0, 0, 0, 0, 0, 0, 1, 0, 1]","[0, 0, 0, 0, 0, 0, 1, 0, 0, 0]",[],[],[],0.5,41,0,0,1,109.45956001593731,109.95960363664199,109.97643917519599,None,109.97643917519599,None,c,1,0.36783902009483427,109.97643917519599,None,110.35945820005145,110.70957849058323,110.7264453334501,None,,,,,,,,,,,,,,,,,,,,,,,,,,,,,,,,,2019_May_27_1746,Probabilistic Learning,3.1.0,59.952803593185514,
,,,hiragana2.xlsx,hiragana21.xlsx,hiragana22.xlsx,V,W,m,None,None,c,,,,,,,,,,,0,0,0,1,1,11,41,26,,,,,,,,,,,,,,,,,,,,,,,,,,,,,,,,,,,,,,,,,,0,0,1,"[1, 0, 1, 1, 1, 0, 0, 0, 1, 0]","[0, 0, 0, 0, 0, 0, 0, 1, 0, 1]","[0, 0, 0, 0, 0, 0, 1, 0, 0, 0]",[],[],[],0.7,42,0,0,1,111.30960743420292,112.0100671449909,112.02638334070798,None,112.02638334070798,None,c,0,0.3343480705516413,112.02638334070798,None,112.37987320229877,112.7264489257941,112.74299040960614,None,,,,,,,,,,,,,,,,,,,,,,,,,,,,,,,,,2019_May_27_1746,Probabilistic Learning,3.1.0,59.952803593185514,
,,,hiragana2.xlsx,hiragana21.xlsx,hiragana22.xlsx,V,W,c,None,None,c,,,,,,,,,,,0,0,0,1,1,12,42,20,,,,,,,,,,,,,,,,,,,,,,,,,,,,,,,,,,,,,,,,,,0,0,1,"[1, 0, 1, 1, 1, 0, 0, 0, 1, 0]","[0, 0, 0, 0, 0, 0, 0, 1, 0, 1]","[0, 0, 0, 0, 0, 0, 1, 0, 0, 0]",[],[],[],0.4,43,0,0,1,113.3263670214219,113.72644738620147,113.74320081528276,None,113.74320081528276,None,c,1,0.3502706536091864,113.74320081528276,None,114.10975122847594,114.4596636792412,114.4772484676214,None,,,,,,,,,,,,,,,,,,,,,,,,,,,,,,,,,2019_May_27_1746,Probabilistic Learning,3.1.0,59.952803593185514,
,,,hiragana2.xlsx,hiragana21.xlsx,hiragana22.xlsx,s,J,c,c,None,None,,,,,,,,,,,0,0,0,1,1,13,43,3,,,,,,,,,,,,,,,,,,,,,,,,,,,,,,,,,,,,,,,,,,1,0,0,"[1, 0, 1, 1, 1, 0, 0, 0, 1, 0]","[0, 0, 0, 0, 0, 0, 0, 1, 0, 1]","[0, 0, 0, 0, 0, 0, 1, 0, 0, 0]",[],[],[],0.5,44,0,0,1,115.06175819144119,115.55984195962083,115.57652918784879,None,115.57652918784879,None,c,1,0.5002309331903234,115.57652918784879,None,116.09313687251415,116.44310218119062,116.46057304251008,None,,,,,,,,,,,,,,,,,,,,,,,,,,,,,,,,,2019_May_27_1746,Probabilistic Learning,3.1.0,59.952803593185514,
,,,hiragana2.xlsx,hiragana21.xlsx,hiragana22.xlsx,s,J,m,c,None,None,,,,,,,,,,,0,0,0,1,1,14,44,8,,,,,,,,,,,,,,,,,,,,,,,,,,,,,,,,,,,,,,,,,,1,0,0,"[1, 0, 1, 1, 1, 0, 0, 0, 1, 0]","[0, 0, 0, 0, 0, 0, 0, 1, 0, 1]","[0, 0, 0, 0, 0, 0, 1, 0, 0, 0]",[],[],[],0.5,45,0,0,1,117.04314754670486,117.54330355487764,117.55991688452195,None,117.55991688452195,None,c,0,0.3849855486769229,117.55991688452195,None,117.96148959046695,118.30993638560176,118.32668776193168,None,,,,,,,,,,,,,,,,,,,,,,,,,,,,,,,,,2019_May_27_1746,Probabilistic Learning,3.1.0,59.952803593185514,
,,,hiragana2.xlsx,hiragana21.xlsx,hiragana22.xlsx,o,b,c,None,c,None,,,,,,,,,,,0,0,0,1,1,15,45,13,,,,,,,,,,,,,,,,,,,,,,,,,,,,,,,,,,,,,,,,,,0,1,0,"[1, 0, 1, 1, 1, 0, 0, 0, 1, 0]","[0, 0, 0, 0, 0, 0, 0, 1, 0, 1]","[0, 0, 0, 0, 0, 0, 1, 0, 0, 0]",[],[],[],0.8,46,0,0,1,118.91111332341097,119.70996594498865,119.72679840459023,None,119.72679840459023,None,c,1,0.4169569582445547,119.72679840459023,None,120.16013673285488,120.51007586915512,120.52730296785012,None,,,,,,,,,,,,,,,,,,,,,,,,,,,,,,,,,2019_May_27_1746,Probabilistic Learning,3.1.0,59.952803593185514,
,,,hiragana2.xlsx,hiragana21.xlsx,hiragana22.xlsx,b,o,m,None,m,None,,,,,,,,,,,0,0,0,1,1,16,46,15,,,,,,,,,,,,,,,,,,,,,,,,,,,,,,,,,,,,,,,,,,0,1,0,"[1, 0, 1, 1, 1, 0, 0, 0, 1, 0]","[0, 0, 0, 0, 0, 0, 0, 1, 0, 1]","[0, 0, 0, 0, 0, 0, 1, 0, 0, 0]",[],[],[],0.5,47,0,0,1,121.11003348010127,121.61003912519664,121.62677921145223,None,121.62677921145223,None,m,1,0.6016418832587078,121.62677921145223,None,122.24351129203569,122.59340834722389,122.61006991623435,None,,,,,,,,,,,,,,,,,,,,,,,,,,,,,,,,,2019_May_27_1746,Probabilistic Learning,3.1.0,59.952803593185514,
,,,hiragana2.xlsx,hiragana21.xlsx,hiragana22.xlsx,b,o,c,None,m,None,,,,,,,,,,,0,0,0,1,1,17,47,18,,,,,,,,,,,,,,,,,,,,,,,,,,,,,,,,,,,,,,,,,,0,1,0,"[1, 0, 1, 1, 1, 0, 0, 0, 1, 0]","[0, 0, 0, 0, 0, 0, 0, 1, 0, 1]","[0, 0, 0, 0, 0, 0, 1, 0, 0, 0]",[],[],[],0.5,48,0,0,1,123.19351734768134,123.69349938619416,123.710217918735,None,123.710217918735,None,m,0,0.4356225135270506,123.710217918735,None,124.1611574573908,124.51017645339016,124.5273491544649,None,,,,,,,,,,,,,,,,,,,,,,,,,,,,,,,,,2019_May_27_1746,Probabilistic Learning,3.1.0,59.952803593185514,
,,,hiragana2.xlsx,hiragana21.xlsx,hiragana22.xlsx,b,o,c,None,m,None,,,,,,,,,,,0,0,0,1,1,18,48,17,,,,,,,,,,,,,,,,,,,,,,,,,,,,,,,,,,,,,,,,,,0,1,0,"[1, 0, 1, 1, 1, 0, 0, 0, 1, 0]","[0, 0, 0, 0, 0, 0, 0, 1, 0, 1]","[0, 0, 0, 0, 0, 0, 1, 0, 0, 0]",[],[],[],0.6,49,0,0,1,125.11020488385111,125.71030721289571,125.727057049633,None,125.727057049633,None,m,0,0.3833402784075588,125.727057049633,None,126.1270096313674,126.47703652223572,126.49373760656454,None,,,,,,,,,,,,,,,,,,,,,,,,,,,,,,,,,2019_May_27_1746,Probabilistic Learning,3.1.0,59.952803593185514,
,,,hiragana2.xlsx,hiragana21.xlsx,hiragana22.xlsx,J,s,m,m,None,None,,,,,,,,,,,0,0,0,1,1,19,49,6,,,,,,,,,,,,,,,,,,,,,,,,,,,,,,,,,,,,,,,,,,1,0,0,"[1, 0, 1, 1, 1, 0, 0, 0, 1, 0]","[0, 0, 0, 0, 0, 0, 0, 1, 0, 1]","[0, 0, 0, 0, 0, 0, 1, 0, 0, 0]",[],[],[],0.5,50,0,0,1,127.07818061637226,127.57704442529939,127.59374089096673,None,127.59374089096673,None,m,1,0.5001914178719744,127.59374089096673,None,128.11041682912037,128.4606002413202,128.47712222416885,None,,,,,,,,,,,,,,,,,,,,,,,,,,,,,,,,,2019_May_27_1746,Probabilistic Learning,3.1.0,59.952803593185514,
,,,hiragana2.xlsx,hiragana21.xlsx,hiragana22.xlsx,J,s,m,m,None,None,,,,,,,,,,,0,0,0,1,1,20,50,5,,,,,,,,,,,,,,,,,,,,,,,,,,,,,,,,,,,,,,,,,,1,0,0,"[1, 0, 1, 1, 1, 0, 0, 0, 1, 0]","[0, 0, 0, 0, 0, 0, 0, 1, 0, 1]","[0, 0, 0, 0, 0, 0, 1, 0, 0, 0]",[],[],[],0.5,51,0,0,1,129.06045008345973,129.5606450936757,129.57714911503717,None,129.57714911503717,None,m,1,0.38366101891733706,129.57714911503717,None,129.97710785502568,130.32747652684338,130.34382556646597,None,,,,,,,,,,,,,,,,,,,,,,,,,,,,,,,,,2019_May_27_1746,Probabilistic Learning,3.1.0,59.952803593185514,
,,,hiragana2.xlsx,hiragana21.xlsx,hiragana22.xlsx,W,V,c,None,None,m,,,,,,,,,,,0,0,0,1,1,21,51,28,,,,,,,,,,,,,,,,,,,,,,,,,,,,,,,,,,,,,,,,,,0,0,1,"[1, 0, 1, 1, 1, 0, 0, 0, 1, 0]","[0, 0, 0, 0, 0, 0, 0, 1, 0, 1]","[0, 0, 0, 0, 0, 0, 1, 0, 0, 0]",[],[],[],0.6,52,0,0,1,130.92733304039575,131.5272331746528,131.54391527106054,None,131.54391527106054,None,m,0,0.3835034711519256,131.54391527106054,None,131.94389248569496,132.2942929751007,132.3104131341679,None,,,,,,,,,,,,,,,,,,,,,,,,,,,,,,,,,2019_May_27_1746,Probabilistic Learning,3.1.0,59.952803593185514,
,,,hiragana2.xlsx,hiragana21.xlsx,hiragana22.xlsx,W,V,c,None,None,m,,,,,,,,,,,0,0,0,1,1,22,52,29,,,,,,,,,,,,,,,,,,,,,,,,,,,,,,,,,,,,,,,,,,0,0,1,"[1, 0, 1, 1, 1, 0, 0, 0, 1, 0]","[0, 0, 0, 0, 0, 0, 0, 1, 0, 1]","[0, 0, 0, 0, 0, 0, 1, 0, 0, 0]",[],[],[],0.3,53,0,0,1,132.89408226136584,133.19406594219618,133.21075111767277,None,133.21075111767277,None,m,0,0.3836933495476842,133.21075111767277,None,133.61099724110682,133.96077318466268,133.97741525259335,None,,,,,,,,,,,,,,,,,,,,,,,,,,,,,,,,,2019_May_27_1746,Probabilistic Learning,3.1.0,59.952803593185514,
,,,hiragana2.xlsx,hiragana21.xlsx,hiragana22.xlsx,J,s,m,m,None,None,,,,,,,,,,,0,0,0,1,1,23,53,7,,,,,,,,,,,,,,,,,,,,,,,,,,,,,,,,,,,,,,,,,,0,0,0,"[1, 0, 1, 1, 1, 0, 0, 0, 1, 0]","[0, 0, 0, 0, 0, 0, 0, 1, 0, 1]","[0, 0, 0, 0, 0, 0, 1, 0, 0, 0]",[],[],[],0.7,54,0,0,1,134.56074311200064,135.26083948812447,135.27745846274775,None,135.27745846274775,None,c,0,0.3670276750344783,135.27745846274775,None,135.66079053026624,136.01151689200196,136.0274553836789,None,,,,,,,,,,,,,,,,,,,,,,,,,,,,,,,,,2019_May_27_1746,Probabilistic Learning,3.1.0,59.952803593185514,
,,,hiragana2.xlsx,hiragana21.xlsx,hiragana22.xlsx,s,J,c,c,None,None,,,,,,,,,,,0,0,0,1,1,24,54,1,,,,,,,,,,,,,,,,,,,,,,,,,,,,,,,,,,,,,,,,,,1,0,0,"[1, 0, 1, 1, 1, 0, 0, 0, 1, 0]","[0, 0, 0, 0, 0, 0, 0, 1, 0, 1]","[0, 0, 0, 0, 0, 0, 1, 0, 0, 0]",[],[],[],0.7,55,0,0,1,136.61068625107873,137.31088731694035,137.3279209448956,None,137.3279209448956,None,c,1,0.40011628763750196,137.3279209448956,None,137.7442938988097,138.0942325219512,138.1108848536387,None,,,,,,,,,,,,,,,,,,,,,,,,,,,,,,,,,2019_May_27_1746,Probabilistic Learning,3.1.0,59.952803593185514,
,,,hiragana2.xlsx,hiragana21.xlsx,hiragana22.xlsx,W,V,m,None,None,m,,,,,,,,,,,0,0,0,1,1,25,55,24,,,,,,,,,,,,,,,,,,,,,,,,,,,,,,,,,,,,,,,,,,0,0,1,"[1, 0, 1, 1, 1, 0, 0, 0, 1, 0]","[0, 0, 0, 0, 0, 0, 0, 1, 0, 1]","[0, 0, 0, 0, 0, 0, 1, 0, 0, 0]",[],[],[],0.4,56,0,0,1,138.69415267033037,139.09427922172472,139.11093411932234,None,139.11093411932234,None,m,1,0.33400423685088754,139.11093411932234,None,139.46111496561207,139.81172586081084,139.82790298340842,None,,,,,,,,,,,,,,,,,,,,,,,,,,,,,,,,,2019_May_27_1746,Probabilistic Learning,3.1.0,59.952803593185514,
,,,hiragana2.xlsx,hiragana21.xlsx,hiragana22.xlsx,b,o,m,None,m,None,,,,,,,,,,,0,0,0,1,1,26,56,16,,,,,,,,,,,,,,,,,,,,,,,,,,,,,,,,,,,,,,,,,,0,1,0,"[1, 0, 1, 1, 1, 0, 0, 0, 1, 0]","[0, 0, 0, 0, 0, 0, 0, 1, 0, 1]","[0, 0, 0, 0, 0, 0, 1, 0, 0, 0]",[],[],[],0.8,57,0,0,1,140.41122981638182,141.21112420293503,141.2276990438113,None,141.2276990438113,None,m,1,0.45102318772114813,141.2276990438113,None,141.69437590567395,142.04617482353933,142.0622883111937,None,,,,,,,,,,,,,,,,,,,,,,,,,,,,,,,,,2019_May_27_1746,Probabilistic Learning,3.1.0,59.952803593185514,
,,,hiragana2.xlsx,hiragana21.xlsx,hiragana22.xlsx,W,V,m,None,None,m,,,,,,,,,,,0,0,0,1,1,27,57,23,,,,,,,,,,,,,,,,,,,,,,,,,,,,,,,,,,,,,,,,,,0,0,1,"[1, 0, 1, 1, 1, 0, 0, 0, 1, 0]","[0, 0, 0, 0, 0, 0, 0, 1, 0, 1]","[0, 0, 0, 0, 0, 0, 1, 0, 0, 0]",[],[],[],0.7,58,0,0,1,142.64448049280327,143.34457225026563,143.3610814033309,None,143.3610814033309,None,m,1,0.3838334489846602,143.3610814033309,None,143.76126645784825,144.1113302980084,144.12784560932778,None,,,,,,,,,,,,,,,,,,,,,,,,,,,,,,,,,2019_May_27_1746,Probabilistic Learning,3.1.0,59.952803593185514,
,,,hiragana2.xlsx,hiragana21.xlsx,hiragana22.xlsx,s,J,c,c,None,None,,,,,,,,,,,0,0,0,1,1,28,58,0,,,,,,,,,,,,,,,,,,,,,,,,,,,,,,,,,,,,,,,,,,0,0,0,"[1, 0, 1, 1, 1, 0, 0, 0, 1, 0]","[0, 0, 0, 0, 0, 0, 0, 1, 0, 1]","[0, 0, 0, 0, 0, 0, 1, 0, 0, 0]",[],[],[],0.7,59,0,0,1,144.71118065330666,145.411196459434,145.4278682920849,None,145.4278682920849,None,m,0,0.35029990517068654,145.4278682920849,None,145.79446437873412,146.14459544618148,146.161515147076,None,,,,,,,,,,,,,,,,,,,,,,,,,,,,,,,,,2019_May_27_1746,Probabilistic Learning,3.1.0,59.952803593185514,
,,,hiragana2.xlsx,hiragana21.xlsx,hiragana22.xlsx,o,b,c,None,c,None,,,,,,,,,,,0,0,0,1,1,29,59,11,,,,,,,,,,,,,,,,,,,,,,,,,,,,,,,,,,,,,,,,,,0,1,0,"[1, 0, 1, 1, 1, 0, 0, 0, 1, 0]","[0, 0, 0, 0, 0, 0, 0, 1, 0, 1]","[0, 0, 0, 0, 0, 0, 1, 0, 0, 0]",[],[],[],0.7,60,0,0,1,146.7446136128856,147.44466790789738,147.4620859111892,None,147.4620859111892,None,c,1,0.4161476658191532,147.4620859111892,None,147.89468627981842,148.24498567183036,148.2618129994953,None,,,,,,,,,,,,,,,,,,,,,,,,,,,,,,,,,2019_May_27_1746,Probabilistic Learning,3.1.0,59.952803593185514,
,,,hiragana2.xlsx,hiragana21.xlsx,hiragana22.xlsx,,,,,,,V,J,E,B,None,c,,,,,0,0,0,1,,,,,0,0,0,33,,,,,,,,,,,,,,,,,,,,,,,,,,,,,,,,,,,,,,,,,,,,,,,0.6,,,,,,,,,,,,,,,,,,,,148.8447159419302,None,space,1.2671762933023274,148.8447159419302,None,150.12818739039358,None,space,0.667048818198964,150.12818739039358,None,0,0,150.82919466937892,151.39522358425893,151.39522358425893,None,151.39522358425893,None,m,0.2833831806201488,151.39522358425893,None,,,,,,,,,2019_May_27_1746,Probabilistic Learning,3.1.0,59.952803593185514,
,,,hiragana2.xlsx,hiragana21.xlsx,hiragana22.xlsx,,,,,,,V,s,E,A,m,None,,,,,0,0,0,1,,,,,0,1,1,16,,,,,,,,,,,,,,,,,,,,,,,,,,,,,,,,,,,,,,,,,,,,,,,0.5,,,,,,,,,,,,,,,,,,,,,,,,,,,,,,,,1,0,151.69489114324097,152.67802686616778,152.6946986989351,None,152.6946986989351,None,m,0.18464900215622038,152.6946986989351,None,,,,,,,,,2019_May_27_1746,Probabilistic Learning,3.1.0,59.952803593185514,
,,,hiragana2.xlsx,hiragana21.xlsx,hiragana22.xlsx,,,,,,,o,J,C,B,None,c,,,,,0,0,0,1,,,,,0,2,2,24,,,,,,,,,,,,,,,,,,,,,,,,,,,,,,,,,,,,,,,,,,,,,,,0.3,,,,,,,,,,,,,,,,,,,,,,,,,,,,,,,,0,0,152.89718395005912,153.8115606153151,153.8283299531322,None,153.8283299531322,None,m,0.1849830854916945,153.8283299531322,None,,,,,,,,,2019_May_27_1746,Probabilistic Learning,3.1.0,59.952803593185514,
,,,hiragana2.xlsx,hiragana21.xlsx,hiragana22.xlsx,,,,,,,V,W,E,F,None,None,,,,,0,0,0,1,,,,,0,3,3,4,,,,,,,,,,,,,,,,,,,,,,,,,,,,,,,,,,,,,,,,,,,,,,,0.6,,,,,,,,,,,,,,,,,,,,,,,,,,,,,,,,0,0,154.03083059971686,154.97839646181092,154.99504314851947,None,154.99504314851947,None,m,0.03485499450471252,154.99504314851947,None,,,,,,,,,2019_May_27_1746,Probabilistic Learning,3.1.0,59.952803593185514,
,,,hiragana2.xlsx,hiragana21.xlsx,hiragana22.xlsx,,,,,,,W,s,F,A,m,None,,,,,0,0,0,1,,,,,0,4,4,21,,,,,,,,,,,,,,,,,,,,,,,,,,,,,,,,,,,,,,,,,,,,,,,0.3,,,,,,,,,,,,,,,,,,,,,,,,,,,,,,,,1,0,155.04655611980706,155.7950206710957,155.81206866819412,None,155.81206866819412,None,m,0.05078116978984326,155.81206866819412,None,,,,,,,,,2019_May_27_1746,Probabilistic Learning,3.1.0,59.952803593185514,
,,,hiragana2.xlsx,hiragana21.xlsx,hiragana22.xlsx,,,,,,,V,J,E,B,None,c,,,,,0,0,0,1,,,,,0,5,5,32,,,,,,,,,,,,,,,,,,,,,,,,,,,,,,,,,,,,,,,,,,,,,,,0.4,,,,,,,,,,,,,,,,,,,,,,,,,,,,,,,,0,0,155.87948882684577,156.62851531547494,156.64508964307606,None,156.64508964307606,None,m,0.2003724694950506,156.64508964307606,None,,,,,,,,,2019_May_27_1746,Probabilistic Learning,3.1.0,59.952803593185514,
,,,hiragana2.xlsx,hiragana21.xlsx,hiragana22.xlsx,,,,,,,s,V,A,E,c,None,,,,,0,0,0,1,,,,,0,6,6,14,,,,,,,,,,,,,,,,,,,,,,,,,,,,,,,,,,,,,,,,,,,,,,,0.3,,,,,,,,,,,,,,,,,,,,,,,,,,,,,,,,0,0,156.91748348565307,157.52851972880308,157.54492624499835,None,157.54492624499835,None,m,0.18467568780761212,157.54492624499835,None,,,,,,,,,2019_May_27_1746,Probabilistic Learning,3.1.0,59.952803593185514,
,,,hiragana2.xlsx,hiragana21.xlsx,hiragana22.xlsx,,,,,,,V,o,e,c,None,None,,,,,0,0,0,1,,,,,0,7,7,39,,,,,,,,,,,,,,,,,,,,,,,,,,,,,,,,,,,,,,,,,,,,,,,0.7,,,,,,,,,,,,,,,,,,,,,,,,,,,,,,,,0,0,157.74629891163204,158.42852208949625,158.445152867469,None,158.445152867469,None,m,0.15014656563289464,158.445152867469,None,,,,,,,,,2019_May_27_1746,Probabilistic Learning,3.1.0,59.952803593185514,
,,,hiragana2.xlsx,hiragana21.xlsx,hiragana22.xlsx,,,,,,,s,b,A,D,c,None,,,,,0,0,0,1,,,,,0,8,8,10,,,,,,,,,,,,,,,,,,,,,,,,,,,,,,,,,,,,,,,,,,,,,,,0.6,,,,,,,,,,,,,,,,,,,,,,,,,,,,,,,,0,0,158.61200872820336,159.5287922299467,159.5287922299467,None,159.5287922299467,None,m,0.116853705374524,159.5287922299467,None,,,,,,,,,2019_May_27_1746,Probabilistic Learning,3.1.0,59.952803593185514,
,,,hiragana2.xlsx,hiragana21.xlsx,hiragana22.xlsx,,,,,,,o,b,C,D,None,None,,,,,0,0,0,1,,,,,0,9,9,2,,,,,,,,,,,,,,,,,,,,,,,,,,,,,,,,,,,,,,,,,,,,,,,0.4,,,,,,,,,,,,,,,,,,,,,,,,,,,,,,,,0,0,159.66197136836126,160.61193739552982,160.62871956301387,None,160.62871956301387,None,m,0.01692431967239827,160.62871956301387,None,,,,,,,,,2019_May_27_1746,Probabilistic Learning,3.1.0,59.952803593185514,
,,,hiragana2.xlsx,hiragana21.xlsx,hiragana22.xlsx,,,,,,,W,s,F,A,m,None,,,,,0,0,0,1,,,,,0,10,10,20,,,,,,,,,,,,,,,,,,,,,,,,,,,,,,,,,,,,,,,,,,,,,,,0.5,,,,,,,,,,,,,,,,,,,,,,,,,,,,,,,,1,0,160.66237319202628,161.49566102295648,161.51206394692417,None,161.51206394692417,None,m,0.03463791741523892,161.51206394692417,None,,,,,,,,,2019_May_27_1746,Probabilistic Learning,3.1.0,59.952803593185514,
,,,hiragana2.xlsx,hiragana21.xlsx,hiragana22.xlsx,,,,,,,J,V,B,E,None,m,,,,,0,0,0,1,,,,,0,11,11,30,,,,,,,,,,,,,,,,,,,,,,,,,,,,,,,,,,,,,,,,,,,,,,,0.3,,,,,,,,,,,,,,,,,,,,,,,,,,,,,,,,0,1,161.56364003987983,162.47864330373704,162.4954767896561,None,162.4954767896561,None,m,0.267051589442417,162.4954767896561,None,,,,,,,,,2019_May_27_1746,Probabilistic Learning,3.1.0,59.952803593185514,
,,,hiragana2.xlsx,hiragana21.xlsx,hiragana22.xlsx,,,,,,,J,b,B,D,None,m,,,,,0,0,0,1,,,,,0,12,12,27,,,,,,,,,,,,,,,,,,,,,,,,,,,,,,,,,,,,,,,,,,,,,,,0.4,,,,,,,,,,,,,,,,,,,,,,,,,,,,,,,,0,1,162.77904061134905,163.3454277291894,163.3623633388197,None,163.3623633388197,None,m,0.23377155885100365,163.3623633388197,None,,,,,,,,,2019_May_27_1746,Probabilistic Learning,3.1.0,59.952803593185514,
,,,hiragana2.xlsx,hiragana21.xlsx,hiragana22.xlsx,,,,,,,s,o,A,C,c,None,,,,,0,0,0,1,,,,,0,13,13,7,,,,,,,,,,,,,,,,,,,,,,,,,,,,,,,,,,,,,,,,,,,,,,,0.8,,,,,,,,,,,,,,,,,,,,,,,,,,,,,,,,0,0,163.61261890491005,164.22886448632926,164.24542957660742,None,164.24542957660742,None,m,0.20108990173321217,164.24542957660742,None,,,,,,,,,2019_May_27_1746,Probabilistic Learning,3.1.0,59.952803593185514,
,,,hiragana2.xlsx,hiragana21.xlsx,hiragana22.xlsx,,,,,,,V,b,e,d,None,None,,,,,0,0,0,1,,,,,0,14,14,43,,,,,,,,,,,,,,,,,,,,,,,,,,,,,,,,,,,,,,,,,,,,,,,0.6,,,,,,,,,,,,,,,,,,,,,,,,,,,,,,,,0,0,164.4633370556403,165.0786655759439,165.0971735836938,None,165.0971735836938,None,m,0.13230723759625107,165.0971735836938,None,,,,,,,,,2019_May_27_1746,Probabilistic Learning,3.1.0,59.952803593185514,
,,,hiragana2.xlsx,hiragana21.xlsx,hiragana22.xlsx,,,,,,,o,W,c,f,None,None,,,,,0,0,0,1,,,,,0,15,15,40,,,,,,,,,,,,,,,,,,,,,,,,,,,,,,,,,,,,,,,,,,,,,,,0.4,,,,,,,,,,,,,,,,,,,,,,,,,,,,,,,,0,0,165.2471456663916,165.862222726224,165.87898898497224,None,165.87898898497224,None,m,0.1677724088076502,165.87898898497224,None,,,,,,,,,2019_May_27_1746,Probabilistic Learning,3.1.0,59.952803593185514,
,,,hiragana2.xlsx,hiragana21.xlsx,hiragana22.xlsx,,,,,,,V,s,E,A,m,None,,,,,0,0,0,1,,,,,0,16,16,17,,,,,,,,,,,,,,,,,,,,,,,,,,,,,,,,,,,,,,,,,,,,,,,0.8,,,,,,,,,,,,,,,,,,,,,,,,,,,,,,,,1,0,166.06459097121842,166.81224930926692,166.81224930926692,None,166.81224930926692,None,m,0.05061849020421505,166.81224930926692,None,,,,,,,,,2019_May_27_1746,Probabilistic Learning,3.1.0,59.952803593185514,
,,,hiragana2.xlsx,hiragana21.xlsx,hiragana22.xlsx,,,,,,,o,V,C,E,None,None,,,,,0,0,0,1,,,,,0,17,17,38,,,,,,,,,,,,,,,,,,,,,,,,,,,,,,,,,,,,,,,,,,,,,,,0.5,,,,,,,,,,,,,,,,,,,,,,,,,,,,,,,,0,0,166.87954989587888,167.86271333089098,167.87903927708976,None,167.87903927708976,None,m,0.35120362357702106,167.87903927708976,None,,,,,,,,,2019_May_27_1746,Probabilistic Learning,3.1.0,59.952803593185514,
,,,hiragana2.xlsx,hiragana21.xlsx,hiragana22.xlsx,,,,,,,o,s,C,A,m,None,,,,,0,0,0,1,,,,,0,18,18,8,,,,,,,,,,,,,,,,,,,,,,,,,,,,,,,,,,,,,,,,,,,,,,,0.8,,,,,,,,,,,,,,,,,,,,,,,,,,,,,,,,1,0,168.2469506561756,169.24563382414635,169.24563382414635,None,169.24563382414635,None,m,0.03404364944435656,169.24563382414635,None,,,,,,,,,2019_May_27_1746,Probabilistic Learning,3.1.0,59.952803593185514,
,,,hiragana2.xlsx,hiragana21.xlsx,hiragana22.xlsx,,,,,,,b,J,D,B,None,c,,,,,0,0,0,1,,,,,0,19,19,28,,,,,,,,,,,,,,,,,,,,,,,,,,,,,,,,,,,,,,,,,,,,,,,0.6,,,,,,,,,,,,,,,,,,,,,,,,,,,,,,,,0,0,169.29659460869152,169.94556238886435,169.94556238886435,None,169.94556238886435,None,m,0.2350524680223316,169.94556238886435,None,,,,,,,,,2019_May_27_1746,Probabilistic Learning,3.1.0,59.952803593185514,
,,,hiragana2.xlsx,hiragana21.xlsx,hiragana22.xlsx,,,,,,,W,o,f,c,None,None,,,,,0,0,0,1,,,,,0,20,20,41,,,,,,,,,,,,,,,,,,,,,,,,,,,,,,,,,,,,,,,,,,,,,,,0.5,,,,,,,,,,,,,,,,,,,,,,,,,,,,,,,,0,0,170.1974334603874,171.02983091585338,171.02983091585338,None,171.02983091585338,None,m,0.08327140903566033,171.02983091585338,None,,,,,,,,,2019_May_27_1746,Probabilistic Learning,3.1.0,59.952803593185514,
,,,hiragana2.xlsx,hiragana21.xlsx,hiragana22.xlsx,,,,,,,s,o,A,C,c,None,,,,,0,0,0,1,,,,,0,21,21,6,,,,,,,,,,,,,,,,,,,,,,,,,,,,,,,,,,,,,,,,,,,,,,,0.4,,,,,,,,,,,,,,,,,,,,,,,,,,,,,,,,0,0,171.12947240495123,171.9292051383527,171.94599243765697,None,171.94599243765697,None,m,0.06788818328641355,171.94599243765697,None,,,,,,,,,2019_May_27_1746,Probabilistic Learning,3.1.0,59.952803593185514,
,,,hiragana2.xlsx,hiragana21.xlsx,hiragana22.xlsx,,,,,,,b,J,D,B,None,c,,,,,0,0,0,1,,,,,0,22,22,29,,,,,,,,,,,,,,,,,,,,,,,,,,,,,,,,,,,,,,,,,,,,,,,0.4,,,,,,,,,,,,,,,,,,,,,,,,,,,,,,,,0,0,172.0314731070539,172.71265811217017,172.72930736478884,None,172.72930736478884,None,m,0.16698672296479344,172.72930736478884,None,,,,,,,,,2019_May_27_1746,Probabilistic Learning,3.1.0,59.952803593185514,
,,,hiragana2.xlsx,hiragana21.xlsx,hiragana22.xlsx,,,,,,,b,V,d,e,None,None,,,,,0,0,0,1,,,,,0,23,23,42,,,,,,,,,,,,,,,,,,,,,,,,,,,,,,,,,,,,,,,,,,,,,,,0.6,,,,,,,,,,,,,,,,,,,,,,,,,,,,,,,,0,0,172.91257282090373,173.7965504747117,173.8132649018662,None,173.8132649018662,None,m,0.0004439047770574689,173.8132649018662,None,,,,,,,,,2019_May_27_1746,Probabilistic Learning,3.1.0,59.952803593185514,
,,,hiragana2.xlsx,hiragana21.xlsx,hiragana22.xlsx,,,,,,,o,s,C,A,m,None,,,,,0,0,0,1,,,,,0,24,24,9,,,,,,,,,,,,,,,,,,,,,,,,,,,,,,,,,,,,,,,,,,,,,,,0.7,,,,,,,,,,,,,,,,,,,,,,,,,,,,,,,,1,0,173.83055460895412,174.3795026828302,174.3795026828302,None,174.3795026828302,None,m,0.25038026995025575,174.3795026828302,None,,,,,,,,,2019_May_27_1746,Probabilistic Learning,3.1.0,59.952803593185514,
,,,hiragana2.xlsx,hiragana21.xlsx,hiragana22.xlsx,,,,,,,J,o,B,C,None,m,,,,,0,0,0,1,,,,,0,25,25,22,,,,,,,,,,,,,,,,,,,,,,,,,,,,,,,,,,,,,,,,,,,,,,,0.7,,,,,,,,,,,,,,,,,,,,,,,,,,,,,,,,0,1,174.64695506962016,175.57948410557583,175.59601532574743,None,175.59601532574743,None,m,0.18370371591299772,175.59601532574743,None,,,,,,,,,2019_May_27_1746,Probabilistic Learning,3.1.0,59.952803593185514,
,,,hiragana2.xlsx,hiragana21.xlsx,hiragana22.xlsx,,,,,,,W,V,F,E,None,None,,,,,0,0,0,1,,,,,0,26,26,5,,,,,,,,,,,,,,,,,,,,,,,,,,,,,,,,,,,,,,,,,,,,,,,0.7,,,,,,,,,,,,,,,,,,,,,,,,,,,,,,,,0,0,175.79628772416618,176.67942683422007,176.67942683422007,None,176.67942683422007,None,m,0.6339217167114839,176.67942683422007,None,,,,,,,,,2019_May_27_1746,Probabilistic Learning,3.1.0,59.952803593185514,
,,,hiragana2.xlsx,hiragana21.xlsx,hiragana22.xlsx,,,,,,,J,W,B,F,None,m,,,,,0,0,0,1,,,,,0,27,27,35,,,,,,,,,,,,,,,,,,,,,,,,,,,,,,,,,,,,,,,,,,,,,,,0.5,,,,,,,,,,,,,,,,,,,,,,,,,,,,,,,,0,1,177.33016099629458,178.31289335608017,178.32959905895405,None,178.32959905895405,None,m,0.06755769229494035,178.32959905895405,None,,,,,,,,,2019_May_27_1746,Probabilistic Learning,3.1.0,59.952803593185514,
,,,hiragana2.xlsx,hiragana21.xlsx,hiragana22.xlsx,,,,,,,b,s,D,A,m,None,,,,,0,0,0,1,,,,,0,28,28,12,,,,,,,,,,,,,,,,,,,,,,,,,,,,,,,,,,,,,,,,,,,,,,,0.5,,,,,,,,,,,,,,,,,,,,,,,,,,,,,,,,1,0,178.4142781337723,178.9294848240679,178.94615460408386,None,178.94615460408386,None,m,0.317698304890655,178.94615460408386,None,,,,,,,,,2019_May_27_1746,Probabilistic Learning,3.1.0,59.952803593185514,
,,,hiragana2.xlsx,hiragana21.xlsx,hiragana22.xlsx,,,,,,,J,o,B,C,None,m,,,,,0,0,0,1,,,,,0,29,29,23,,,,,,,,,,,,,,,,,,,,,,,,,,,,,,,,,,,,,,,,,,,,,,,0.8,,,,,,,,,,,,,,,,,,,,,,,,,,,,,,,,0,1,179.28232448047493,180.1304607988568,180.14660661714152,None,180.14660661714152,None,m,0.1834409652510658,180.14660661714152,None,,,,,,,,,2019_May_27_1746,Probabilistic Learning,3.1.0,59.952803593185514,
,,,hiragana2.xlsx,hiragana21.xlsx,hiragana22.xlsx,,,,,,,s,W,A,F,c,None,,,,,0,0,0,1,,,,,0,30,30,18,,,,,,,,,,,,,,,,,,,,,,,,,,,,,,,,,,,,,,,,,,,,,,,0.8,,,,,,,,,,,,,,,,,,,,,,,,,,,,,,,,0,0,180.3467999851564,181.2463107148651,181.26294508506544,None,181.26294508506544,None,m,0.08447688003070652,181.26294508506544,None,,,,,,,,,2019_May_27_1746,Probabilistic Learning,3.1.0,59.952803593185514,
,,,hiragana2.xlsx,hiragana21.xlsx,hiragana22.xlsx,,,,,,,J,s,B,A,None,None,,,,,0,0,0,1,,,,,0,31,31,1,,,,,,,,,,,,,,,,,,,,,,,,,,,,,,,,,,,,,,,,,,,,,,,0.4,,,,,,,,,,,,,,,,,,,,,,,,,,,,,,,,0,0,181.36451460933313,182.19788198394235,182.19788198394235,None,182.19788198394235,None,m,0.16770261561032385,182.19788198394235,None,,,,,,,,,2019_May_27_1746,Probabilistic Learning,3.1.0,59.952803593185514,
,,,hiragana2.xlsx,hiragana21.xlsx,hiragana22.xlsx,,,,,,,s,b,A,D,c,None,,,,,0,0,0,1,,,,,0,32,32,11,,,,,,,,,,,,,,,,,,,,,,,,,,,,,,,,,,,,,,,,,,,,,,,0.4,,,,,,,,,,,,,,,,,,,,,,,,,,,,,,,,0,0,182.3896427002037,183.34772217820864,183.3656056401087,None,183.3656056401087,None,m,0.1987903208937496,183.3656056401087,None,,,,,,,,,2019_May_27_1746,Probabilistic Learning,3.1.0,59.952803593185514,
,,,hiragana2.xlsx,hiragana21.xlsx,hiragana22.xlsx,,,,,,,W,J,F,B,None,c,,,,,0,0,0,1,,,,,0,33,33,37,,,,,,,,,,,,,,,,,,,,,,,,,,,,,,,,,,,,,,,,,,,,,,,0.8,,,,,,,,,,,,,,,,,,,,,,,,,,,,,,,,0,0,183.58743538998533,184.39749801903963,184.41443516826257,None,184.41443516826257,None,m,0.23337691987399012,184.41443516826257,None,,,,,,,,,2019_May_27_1746,Probabilistic Learning,3.1.0,59.952803593185514,
,,,hiragana2.xlsx,hiragana21.xlsx,hiragana22.xlsx,,,,,,,J,b,B,D,None,m,,,,,0,0,0,1,,,,,0,34,34,26,,,,,,,,,,,,,,,,,,,,,,,,,,,,,,,,,,,,,,,,,,,,,,,0.5,,,,,,,,,,,,,,,,,,,,,,,,,,,,,,,,0,1,184.6709741683444,185.23011563078035,185.24828083103057,None,185.24828083103057,None,m,0.24987632245756686,185.24828083103057,None,,,,,,,,,2019_May_27_1746,Probabilistic Learning,3.1.0,59.952803593185514,
,,,hiragana2.xlsx,hiragana21.xlsx,hiragana22.xlsx,,,,,,,b,s,D,A,m,None,,,,,0,0,0,1,,,,,0,35,35,13,,,,,,,,,,,,,,,,,,,,,,,,,,,,,,,,,,,,,,,,,,,,,,,0.7,,,,,,,,,,,,,,,,,,,,,,,,,,,,,,,,1,0,185.52575930813327,186.04781239607837,186.04781239607837,None,186.04781239607837,None,m,0.26733999920543283,186.04781239607837,None,,,,,,,,,2019_May_27_1746,Probabilistic Learning,3.1.0,59.952803593185514,
,,,hiragana2.xlsx,hiragana21.xlsx,hiragana22.xlsx,,,,,,,s,J,A,B,None,None,,,,,0,0,0,1,,,,,0,36,36,0,,,,,,,,,,,,,,,,,,,,,,,,,,,,,,,,,,,,,,,,,,,,,,,0.7,,,,,,,,,,,,,,,,,,,,,,,,,,,,,,,,0,0,186.33919099497143,187.2146605590824,187.23067962075584,None,187.23067962075584,None,m,0.2172352069756016,187.23067962075584,None,,,,,,,,,2019_May_27_1746,Probabilistic Learning,3.1.0,59.952803593185514,
,,,hiragana2.xlsx,hiragana21.xlsx,hiragana22.xlsx,,,,,,,s,V,A,E,c,None,,,,,0,0,0,1,,,,,0,37,37,15,,,,,,,,,,,,,,,,,,,,,,,,,,,,,,,,,,,,,,,,,,,,,,,0.6,,,,,,,,,,,,,,,,,,,,,,,,,,,,,,,,0,0,187.46662195108365,188.3635231363587,188.3805988455424,None,188.3805988455424,None,m,0.0005485943984240294,188.3805988455424,None,,,,,,,,,2019_May_27_1746,Probabilistic Learning,3.1.0,59.952803593185514,
,,,hiragana2.xlsx,hiragana21.xlsx,hiragana22.xlsx,,,,,,,o,J,C,B,None,c,,,,,0,0,0,1,,,,,0,38,38,25,,,,,,,,,,,,,,,,,,,,,,,,,,,,,,,,,,,,,,,,,,,,,,,0.7,,,,,,,,,,,,,,,,,,,,,,,,,,,,,,,,0,0,188.4024651341606,189.2471579828998,189.2471579828998,None,189.2471579828998,None,m,0.11655605828855187,189.2471579828998,None,,,,,,,,,2019_May_27_1746,Probabilistic Learning,3.1.0,59.952803593185514,
,,,hiragana2.xlsx,hiragana21.xlsx,hiragana22.xlsx,,,,,,,J,W,B,F,None,m,,,,,0,0,0,1,,,,,0,39,39,34,,,,,,,,,,,,,,,,,,,,,,,,,,,,,,,,,,,,,,,,,,,,,,,0.3,,,,,,,,,,,,,,,,,,,,,,,,,,,,,,,,0,1,189.38075280096382,190.08126947528217,190.09808346023783,None,190.09808346023783,None,m,0.2158301071031019,190.09808346023783,None,,,,,,,,,2019_May_27_1746,Probabilistic Learning,3.1.0,59.952803593185514,
,,,hiragana2.xlsx,hiragana21.xlsx,hiragana22.xlsx,,,,,,,W,J,F,B,None,c,,,,,0,0,0,1,,,,,0,40,40,36,,,,,,,,,,,,,,,,,,,,,,,,,,,,,,,,,,,,,,,,,,,,,,,0.7,,,,,,,,,,,,,,,,,,,,,,,,,,,,,,,,0,0,190.33183089946397,190.94623773999047,190.94623773999047,None,190.94623773999047,None,m,0.23385058937128633,190.94623773999047,None,,,,,,,,,2019_May_27_1746,Probabilistic Learning,3.1.0,59.952803593185514,
,,,hiragana2.xlsx,hiragana21.xlsx,hiragana22.xlsx,,,,,,,b,W,d,f,None,None,,,,,0,0,0,1,,,,,0,41,41,44,,,,,,,,,,,,,,,,,,,,,,,,,,,,,,,,,,,,,,,,,,,,,,,0.7,,,,,,,,,,,,,,,,,,,,,,,,,,,,,,,,0,0,191.1969474744983,192.04678653972223,192.06335881457198,None,192.06335881457198,None,m,0.034042623126879334,192.06335881457198,None,,,,,,,,,2019_May_27_1746,Probabilistic Learning,3.1.0,59.952803593185514,
,,,hiragana2.xlsx,hiragana21.xlsx,hiragana22.xlsx,,,,,,,W,b,f,d,None,None,,,,,0,0,0,1,,,,,0,42,42,45,,,,,,,,,,,,,,,,,,,,,,,,,,,,,,,,,,,,,,,,,,,,,,,0.3,,,,,,,,,,,,,,,,,,,,,,,,,,,,,,,,0,0,192.11428829480428,193.08015329844784,193.09688158158679,None,193.09688158158679,None,m,0.017103934194892645,193.09688158158679,None,,,,,,,,,2019_May_27_1746,Probabilistic Learning,3.1.0,59.952803593185514,
,,,hiragana2.xlsx,hiragana21.xlsx,hiragana22.xlsx,,,,,,,s,W,A,F,c,None,,,,,0,0,0,1,,,,,0,43,43,19,,,,,,,,,,,,,,,,,,,,,,,,,,,,,,,,,,,,,,,,,,,,,,,0.8,,,,,,,,,,,,,,,,,,,,,,,,,,,,,,,,0,0,193.13076768326573,194.08019743242767,194.08019743242767,None,194.08019743242767,None,m,0.06683615443762392,194.08019743242767,None,,,,,,,,,2019_May_27_1746,Probabilistic Learning,3.1.0,59.952803593185514,
,,,hiragana2.xlsx,hiragana21.xlsx,hiragana22.xlsx,,,,,,,b,o,D,C,None,None,,,,,0,0,0,1,,,,,0,44,44,3,,,,,,,,,,,,,,,,,,,,,,,,,,,,,,,,,,,,,,,,,,,,,,,0.5,,,,,,,,,,,,,,,,,,,,,,,,,,,,,,,,0,0,194.1643243203871,194.76353883987758,194.78025172732305,None,194.78025172732305,None,m,0.2348307721549645,194.78025172732305,None,,,,,,,,,2019_May_27_1746,Probabilistic Learning,3.1.0,59.952803593185514,
,,,hiragana2.xlsx,hiragana21.xlsx,hiragana22.xlsx,,,,,,,J,V,B,E,None,m,,,,,0,0,0,1,,,,,0,45,45,31,,,,,,,,,,,,,,,,,,,,,,,,,,,,,,,,,,,,,,,,,,,,,,,0.4,,,,,,,,,,,,,,,,,,,,,,,,,,,,,,,,0,1,195.03303318866529,195.94669447443448,195.96337913675234,None,195.96337913675234,None,m,0.1670508710667491,195.96337913675234,None,,,,,,,,,2019_May_27_1746,Probabilistic Learning,3.1.0,59.952803593185514,
,,,hiragana2.xlsx,hiragana21.xlsx,hiragana22.xlsx,,,,,,,J,b,B,D,None,m,,,,,0,0,0,1,,,,,1,0,46,27,,,,,,,,,,,,,,,,,,,,,,,,,,,,,,,,,,,,,,,,,,,,,,,0.6,,,,,,,,,,,,,,,,,,,,,,,,,,,,,,,,0,1,196.14689040835947,196.79704159253743,196.81362310471013,None,196.81362310471013,None,m,0.21712589857634157,196.81362310471013,None,,,,,,,,,2019_May_27_1746,Probabilistic Learning,3.1.0,59.952803593185514,
,,,hiragana2.xlsx,hiragana21.xlsx,hiragana22.xlsx,,,,,,,J,s,B,A,None,None,,,,,0,0,0,1,,,,,1,1,47,1,,,,,,,,,,,,,,,,,,,,,,,,,,,,,,,,,,,,,,,,,,,,,,,0.8,,,,,,,,,,,,,,,,,,,,,,,,,,,,,,,,0,0,197.04668287641834,197.58044632698875,197.59696009883191,None,197.59696009883191,None,m,0.23378284892532974,197.59696009883191,None,,,,,,,,,2019_May_27_1746,Probabilistic Learning,3.1.0,59.952803593185514,
,,,hiragana2.xlsx,hiragana21.xlsx,hiragana22.xlsx,,,,,,,V,J,E,B,None,c,,,,,0,0,0,1,,,,,1,2,48,33,,,,,,,,,,,,,,,,,,,,,,,,,,,,,,,,,,,,,,,,,,,,,,,0.3,,,,,,,,,,,,,,,,,,,,,,,,,,,,,,,,0,0,197.847263904172,198.596938031842,198.61369197419845,None,198.61369197419845,None,m,0.2004915283760056,198.61369197419845,None,,,,,,,,,2019_May_27_1746,Probabilistic Learning,3.1.0,59.952803593185514,
,,,hiragana2.xlsx,hiragana21.xlsx,hiragana22.xlsx,,,,,,,b,s,D,A,m,None,,,,,0,0,0,1,,,,,1,3,49,13,,,,,,,,,,,,,,,,,,,,,,,,,,,,,,,,,,,,,,,,,,,,,,,0.4,,,,,,,,,,,,,,,,,,,,,,,,,,,,,,,,1,0,198.83178317325655,199.4811553430045,199.4981150723761,None,199.4981150723761,None,m,0.217975732521154,199.4981150723761,None,,,,,,,,,2019_May_27_1746,Probabilistic Learning,3.1.0,59.952803593185514,
,,,hiragana2.xlsx,hiragana21.xlsx,hiragana22.xlsx,,,,,,,b,o,D,C,None,None,,,,,0,0,0,1,,,,,1,4,50,3,,,,,,,,,,,,,,,,,,,,,,,,,,,,,,,,,,,,,,,,,,,,,,,0.7,,,,,,,,,,,,,,,,,,,,,,,,,,,,,,,,0,0,199.73482256114949,200.4649412711151,200.48229050764348,None,200.48229050764348,None,m,0.18322645407170057,200.48229050764348,None,,,,,,,,,2019_May_27_1746,Probabilistic Learning,3.1.0,59.952803593185514,
,,,hiragana2.xlsx,hiragana21.xlsx,hiragana22.xlsx,,,,,,,o,b,C,D,None,None,,,,,0,0,0,1,,,,,1,5,51,2,,,,,,,,,,,,,,,,,,,,,,,,,,,,,,,,,,,,,,,,,,,,,,,0.5,,,,,,,,,,,,,,,,,,,,,,,,,,,,,,,,0,0,200.69003795506433,201.4319311757572,201.4319311757572,None,201.4319311757572,None,m,0.06769368622917682,201.4319311757572,None,,,,,,,,,2019_May_27_1746,Probabilistic Learning,3.1.0,59.952803593185514,
,,,hiragana2.xlsx,hiragana21.xlsx,hiragana22.xlsx,,,,,,,o,s,C,A,m,None,,,,,0,0,0,1,,,,,1,6,52,9,,,,,,,,,,,,,,,,,,,,,,,,,,,,,,,,,,,,,,,,,,,,,,,0.4,,,,,,,,,,,,,,,,,,,,,,,,,,,,,,,,1,0,201.51937785581686,202.41536403272767,202.41536403272767,None,202.41536403272767,None,m,0.03344168374314904,202.41536403272767,None,,,,,,,,,2019_May_27_1746,Probabilistic Learning,3.1.0,59.952803593185514,
,,,hiragana2.xlsx,hiragana21.xlsx,hiragana22.xlsx,,,,,,,W,s,F,A,m,None,,,,,0,0,0,1,,,,,1,7,53,20,,,,,,,,,,,,,,,,,,,,,,,,,,,,,,,,,,,,,,,,,,,,,,,0.4,,,,,,,,,,,,,,,,,,,,,,,,,,,,,,,,1,0,202.46766166342422,203.41563140193466,203.41563140193466,None,203.41563140193466,None,m,0.14960105018690228,203.41563140193466,None,,,,,,,,,2019_May_27_1746,Probabilistic Learning,3.1.0,59.952803593185514,
,,,hiragana2.xlsx,hiragana21.xlsx,hiragana22.xlsx,,,,,,,V,b,e,d,None,None,,,,,0,0,0,1,,,,,1,8,54,43,,,,,,,,,,,,,,,,,,,,,,,,,,,,,,,,,,,,,,,,,,,,,,,0.3,,,,,,,,,,,,,,,,,,,,,,,,,,,,,,,,0,0,203.58996641717386,204.4646251492668,204.4646251492668,None,204.4646251492668,None,m,0.0664902679855004,204.4646251492668,None,,,,,,,,,2019_May_27_1746,Probabilistic Learning,3.1.0,59.952803593185514,
,,,hiragana2.xlsx,hiragana21.xlsx,hiragana22.xlsx,,,,,,,J,o,B,C,None,m,,,,,0,0,0,1,,,,,1,9,55,22,,,,,,,,,,,,,,,,,,,,,,,,,,,,,,,,,,,,,,,,,,,,,,,0.7,,,,,,,,,,,,,,,,,,,,,,,,,,,,,,,,0,1,204.55030801345129,205.26448925794102,205.28179641335737,None,205.28179641335737,None,m,0.19972688297275454,205.28179641335737,None,,,,,,,,,2019_May_27_1746,Probabilistic Learning,3.1.0,59.952803593185514,
,,,hiragana2.xlsx,hiragana21.xlsx,hiragana22.xlsx,,,,,,,s,b,A,D,c,None,,,,,0,0,0,1,,,,,1,10,56,10,,,,,,,,,,,,,,,,,,,,,,,,,,,,,,,,,,,,,,,,,,,,,,,0.6,,,,,,,,,,,,,,,,,,,,,,,,,,,,,,,,0,0,205.49929026549216,206.48169623978902,206.49709024245385,None,206.49709024245385,None,m,0.15072903025429696,206.49709024245385,None,,,,,,,,,2019_May_27_1746,Probabilistic Learning,3.1.0,59.952803593185514,
,,,hiragana2.xlsx,hiragana21.xlsx,hiragana22.xlsx,,,,,,,W,b,f,d,None,None,,,,,0,0,0,1,,,,,1,11,57,45,,,,,,,,,,,,,,,,,,,,,,,,,,,,,,,,,,,,,,,,,,,,,,,0.7,,,,,,,,,,,,,,,,,,,,,,,,,,,,,,,,0,0,206.66590595582966,207.59733421052806,207.61414768220857,None,207.61414768220857,None,m,0.16683020151685923,207.61414768220857,None,,,,,,,,,2019_May_27_1746,Probabilistic Learning,3.1.0,59.952803593185514,
,,,hiragana2.xlsx,hiragana21.xlsx,hiragana22.xlsx,,,,,,,V,s,E,A,m,None,,,,,0,0,0,1,,,,,1,12,58,17,,,,,,,,,,,,,,,,,,,,,,,,,,,,,,,,,,,,,,,,,,,,,,,0.5,,,,,,,,,,,,,,,,,,,,,,,,,,,,,,,,1,0,207.7981156882597,208.53138945787214,208.54774978745263,None,208.54774978745263,None,m,0.2345249141799286,208.54774978745263,None,,,,,,,,,2019_May_27_1746,Probabilistic Learning,3.1.0,59.952803593185514,
,,,hiragana2.xlsx,hiragana21.xlsx,hiragana22.xlsx,,,,,,,J,V,B,E,None,m,,,,,0,0,0,1,,,,,1,13,59,31,,,,,,,,,,,,,,,,,,,,,,,,,,,,,,,,,,,,,,,,,,,,,,,0.7,,,,,,,,,,,,,,,,,,,,,,,,,,,,,,,,0,1,208.79955568455625,209.44871231680736,209.46433519991115,None,209.46433519991115,None,m,0.23477226914837956,209.46433519991115,None,,,,,,,,,2019_May_27_1746,Probabilistic Learning,3.1.0,59.952803593185514,
,,,hiragana2.xlsx,hiragana21.xlsx,hiragana22.xlsx,,,,,,,o,s,C,A,m,None,,,,,0,0,0,1,,,,,1,14,60,8,,,,,,,,,,,,,,,,,,,,,,,,,,,,,,,,,,,,,,,,,,,,,,,0.5,,,,,,,,,,,,,,,,,,,,,,,,,,,,,,,,1,0,209.71669379703235,210.51407665747683,210.53094555309508,None,210.53094555309508,None,m,0.11698918615002185,210.53094555309508,None,,,,,,,,,2019_May_27_1746,Probabilistic Learning,3.1.0,59.952803593185514,
,,,hiragana2.xlsx,hiragana21.xlsx,hiragana22.xlsx,,,,,,,V,J,E,B,None,c,,,,,0,0,0,1,,,,,1,15,61,32,,,,,,,,,,,,,,,,,,,,,,,,,,,,,,,,,,,,,,,,,,,,,,,0.5,,,,,,,,,,,,,,,,,,,,,,,,,,,,,,,,0,0,210.6647933712229,211.5308639567811,211.5478200938087,None,211.5478200938087,None,m,0.20031345321331173,211.5478200938087,None,,,,,,,,,2019_May_27_1746,Probabilistic Learning,3.1.0,59.952803593185514,
,,,hiragana2.xlsx,hiragana21.xlsx,hiragana22.xlsx,,,,,,,s,V,A,E,c,None,,,,,0,0,0,1,,,,,1,16,62,15,,,,,,,,,,,,,,,,,,,,,,,,,,,,,,,,,,,,,,,,,,,,,,,0.8,,,,,,,,,,,,,,,,,,,,,,,,,,,,,,,,0,0,211.76541042455938,212.29802742041647,212.29802742041647,None,212.29802742041647,None,m,0.2500887810019776,212.29802742041647,None,,,,,,,,,2019_May_27_1746,Probabilistic Learning,3.1.0,59.952803593185514,
,,,hiragana2.xlsx,hiragana21.xlsx,hiragana22.xlsx,,,,,,,W,o,f,c,None,None,,,,,0,0,0,1,,,,,1,17,63,41,,,,,,,,,,,,,,,,,,,,,,,,,,,,,,,,,,,,,,,,,,,,,,,0.3,,,,,,,,,,,,,,,,,,,,,,,,,,,,,,,,0,0,212.56569893704727,213.14772895222995,213.16445518250111,None,213.16445518250111,None,m,0.2505824646214023,213.16445518250111,None,,,,,,,,,2019_May_27_1746,Probabilistic Learning,3.1.0,59.952803593185514,
,,,hiragana2.xlsx,hiragana21.xlsx,hiragana22.xlsx,,,,,,,W,J,F,B,None,c,,,,,0,0,0,1,,,,,1,18,64,37,,,,,,,,,,,,,,,,,,,,,,,,,,,,,,,,,,,,,,,,,,,,,,,0.7,,,,,,,,,,,,,,,,,,,,,,,,,,,,,,,,0,0,213.43102848378476,214.29780264548026,214.3144575431943,None,214.3144575431943,None,m,0.034251489327289164,214.3144575431943,None,,,,,,,,,2019_May_27_1746,Probabilistic Learning,3.1.0,59.952803593185514,
,,,hiragana2.xlsx,hiragana21.xlsx,hiragana22.xlsx,,,,,,,o,V,C,E,None,None,,,,,0,0,0,1,,,,,1,19,65,38,,,,,,,,,,,,,,,,,,,,,,,,,,,,,,,,,,,,,,,,,,,,,,,0.6,,,,,,,,,,,,,,,,,,,,,,,,,,,,,,,,0,0,214.36535263992846,214.914452616591,214.914452616591,None,214.914452616591,None,m,0.317938988446258,214.914452616591,None,,,,,,,,,2019_May_27_1746,Probabilistic Learning,3.1.0,59.952803593185514,
,,,hiragana2.xlsx,hiragana21.xlsx,hiragana22.xlsx,,,,,,,s,o,A,C,c,None,,,,,0,0,0,1,,,,,1,20,66,6,,,,,,,,,,,,,,,,,,,,,,,,,,,,,,,,,,,,,,,,,,,,,,,0.8,,,,,,,,,,,,,,,,,,,,,,,,,,,,,,,,0,0,215.2490172511898,216.01564289722592,216.03122369921766,None,216.03122369921766,None,m,0.1836893466534093,216.03122369921766,None,,,,,,,,,2019_May_27_1746,Probabilistic Learning,3.1.0,59.952803593185514,
,,,hiragana2.xlsx,hiragana21.xlsx,hiragana22.xlsx,,,,,,,b,s,D,A,m,None,,,,,0,0,0,1,,,,,1,21,67,12,,,,,,,,,,,,,,,,,,,,,,,,,,,,,,,,,,,,,,,,,,,,,,,0.6,,,,,,,,,,,,,,,,,,,,,,,,,,,,,,,,1,0,216.23240956652444,216.86450280610006,216.88227952551097,None,216.88227952551097,None,m,0.2326779622817412,216.88227952551097,None,,,,,,,,,2019_May_27_1746,Probabilistic Learning,3.1.0,59.952803593185514,
,,,hiragana2.xlsx,hiragana21.xlsx,hiragana22.xlsx,,,,,,,J,b,B,D,None,m,,,,,0,0,0,1,,,,,1,22,68,26,,,,,,,,,,,,,,,,,,,,,,,,,,,,,,,,,,,,,,,,,,,,,,,0.5,,,,,,,,,,,,,,,,,,,,,,,,,,,,,,,,0,1,217.13185050303582,217.81451040122192,217.8315163172083,None,217.8315163172083,None,m,0.23385931353550404,217.8315163172083,None,,,,,,,,,2019_May_27_1746,Probabilistic Learning,3.1.0,59.952803593185514,
,,,hiragana2.xlsx,hiragana21.xlsx,hiragana22.xlsx,,,,,,,s,J,A,B,None,None,,,,,0,0,0,1,,,,,1,23,69,0,,,,,,,,,,,,,,,,,,,,,,,,,,,,,,,,,,,,,,,,,,,,,,,0.6,,,,,,,,,,,,,,,,,,,,,,,,,,,,,,,,0,0,218.08242260140833,218.84787510719616,218.8646203253884,None,218.8646203253884,None,m,0.13380573701579124,218.8646203253884,None,,,,,,,,,2019_May_27_1746,Probabilistic Learning,3.1.0,59.952803593185514,
,,,hiragana2.xlsx,hiragana21.xlsx,hiragana22.xlsx,,,,,,,V,o,e,c,None,None,,,,,0,0,0,1,,,,,1,24,70,39,,,,,,,,,,,,,,,,,,,,,,,,,,,,,,,,,,,,,,,,,,,,,,,0.6,,,,,,,,,,,,,,,,,,,,,,,,,,,,,,,,0,0,219.01671904569957,219.88133937108796,219.89797682047356,None,219.89797682047356,None,m,0.06728980981279165,219.89797682047356,None,,,,,,,,,2019_May_27_1746,Probabilistic Learning,3.1.0,59.952803593185514,
,,,hiragana2.xlsx,hiragana21.xlsx,hiragana22.xlsx,,,,,,,b,J,D,B,None,c,,,,,0,0,0,1,,,,,1,25,71,29,,,,,,,,,,,,,,,,,,,,,,,,,,,,,,,,,,,,,,,,,,,,,,,0.6,,,,,,,,,,,,,,,,,,,,,,,,,,,,,,,,0,0,219.9826348546194,220.49809967679903,220.51462987053674,None,220.51462987053674,None,m,0.2678521577036008,220.51462987053674,None,,,,,,,,,2019_May_27_1746,Probabilistic Learning,3.1.0,59.952803593185514,
,,,hiragana2.xlsx,hiragana21.xlsx,hiragana22.xlsx,,,,,,,b,J,D,B,None,c,,,,,0,0,0,1,,,,,1,26,72,28,,,,,,,,,,,,,,,,,,,,,,,,,,,,,,,,,,,,,,,,,,,,,,,0.4,,,,,,,,,,,,,,,,,,,,,,,,,,,,,,,,0,0,220.79795711417682,221.73144631879404,221.74807299126405,None,221.74807299126405,None,m,0.0004603267880156636,221.74807299126405,None,,,,,,,,,2019_May_27_1746,Probabilistic Learning,3.1.0,59.952803593185514,
,,,hiragana2.xlsx,hiragana21.xlsx,hiragana22.xlsx,,,,,,,V,W,E,F,None,None,,,,,0,0,0,1,,,,,1,27,73,4,,,,,,,,,,,,,,,,,,,,,,,,,,,,,,,,,,,,,,,,,,,,,,,0.5,,,,,,,,,,,,,,,,,,,,,,,,,,,,,,,,0,0,221.76545507169794,222.2985477898037,222.31557525950484,None,222.31557525950484,None,m,0.43276715371757746,222.31557525950484,None,,,,,,,,,2019_May_27_1746,Probabilistic Learning,3.1.0,59.952803593185514,
,,,hiragana2.xlsx,hiragana21.xlsx,hiragana22.xlsx,,,,,,,V,s,E,A,m,None,,,,,0,0,0,1,,,,,1,28,74,16,,,,,,,,,,,,,,,,,,,,,,,,,,,,,,,,,,,,,,,,,,,,,,,0.6,,,,,,,,,,,,,,,,,,,,,,,,,,,,,,,,1,0,222.76482795993797,223.58209108409937,223.59817891253624,None,223.59817891253624,None,m,0.2341174454195425,223.59817891253624,None,,,,,,,,,2019_May_27_1746,Probabilistic Learning,3.1.0,59.952803593185514,
,,,hiragana2.xlsx,hiragana21.xlsx,hiragana22.xlsx,,,,,,,s,o,A,C,c,None,,,,,0,0,0,1,,,,,1,29,75,7,,,,,,,,,,,,,,,,,,,,,,,,,,,,,,,,,,,,,,,,,,,,,,,0.4,,,,,,,,,,,,,,,,,,,,,,,,,,,,,,,,0,0,223.8500951443566,224.63154823728837,224.6483581167413,None,224.6483581167413,None,m,0.18455919483676553,224.6483581167413,None,,,,,,,,,2019_May_27_1746,Probabilistic Learning,3.1.0,59.952803593185514,
,,,hiragana2.xlsx,hiragana21.xlsx,hiragana22.xlsx,,,,,,,o,J,C,B,None,c,,,,,0,0,0,1,,,,,1,30,76,24,,,,,,,,,,,,,,,,,,,,,,,,,,,,,,,,,,,,,,,,,,,,,,,0.3,,,,,,,,,,,,,,,,,,,,,,,,,,,,,,,,0,0,224.85058472270612,225.58170414273627,225.59819071588572,None,225.59819071588572,None,m,0.21745792916044593,225.59819071588572,None,,,,,,,,,2019_May_27_1746,Probabilistic Learning,3.1.0,59.952803593185514,
,,,hiragana2.xlsx,hiragana21.xlsx,hiragana22.xlsx,,,,,,,J,W,B,F,None,m,,,,,0,0,0,1,,,,,1,31,77,35,,,,,,,,,,,,,,,,,,,,,,,,,,,,,,,,,,,,,,,,,,,,,,,0.4,,,,,,,,,,,,,,,,,,,,,,,,,,,,,,,,0,1,225.83260221604723,226.6316046875436,226.64826112473384,None,226.64826112473384,None,m,0.1677441835636273,226.64826112473384,None,,,,,,,,,2019_May_27_1746,Probabilistic Learning,3.1.0,59.952803593185514,
,,,hiragana2.xlsx,hiragana21.xlsx,hiragana22.xlsx,,,,,,,b,V,d,e,None,None,,,,,0,0,0,1,,,,,1,32,78,42,,,,,,,,,,,,,,,,,,,,,,,,,,,,,,,,,,,,,,,,,,,,,,,0.6,,,,,,,,,,,,,,,,,,,,,,,,,,,,,,,,0,0,226.83279260760173,227.78212279896252,227.79845541657414,None,227.79845541657414,None,m,0.05027157731819898,227.79845541657414,None,,,,,,,,,2019_May_27_1746,Probabilistic Learning,3.1.0,59.952803593185514,
,,,hiragana2.xlsx,hiragana21.xlsx,hiragana22.xlsx,,,,,,,s,W,A,F,c,None,,,,,0,0,0,1,,,,,1,33,79,19,,,,,,,,,,,,,,,,,,,,,,,,,,,,,,,,,,,,,,,,,,,,,,,0.4,,,,,,,,,,,,,,,,,,,,,,,,,,,,,,,,0,0,227.86554251832422,228.74852972570807,228.7651846233057,None,228.7651846233057,None,m,0.1168054660083726,228.7651846233057,None,,,,,,,,,2019_May_27_1746,Probabilistic Learning,3.1.0,59.952803593185514,
,,,hiragana2.xlsx,hiragana21.xlsx,hiragana22.xlsx,,,,,,,W,s,F,A,m,None,,,,,0,0,0,1,,,,,1,34,80,21,,,,,,,,,,,,,,,,,,,,,,,,,,,,,,,,,,,,,,,,,,,,,,,0.4,,,,,,,,,,,,,,,,,,,,,,,,,,,,,,,,1,0,228.89908375986852,229.8818818073487,229.89884153672028,None,229.89884153672028,None,m,0.05015303159598261,229.89884153672028,None,,,,,,,,,2019_May_27_1746,Probabilistic Learning,3.1.0,59.952803593185514,
,,,hiragana2.xlsx,hiragana21.xlsx,hiragana22.xlsx,,,,,,,W,V,F,E,None,None,,,,,0,0,0,1,,,,,1,35,81,5,,,,,,,,,,,,,,,,,,,,,,,,,,,,,,,,,,,,,,,,,,,,,,,0.4,,,,,,,,,,,,,,,,,,,,,,,,,,,,,,,,0,0,229.96532513329294,230.48189843457658,230.49855127942283,None,230.49855127942283,None,m,0.351173858740367,230.49855127942283,None,,,,,,,,,2019_May_27_1746,Probabilistic Learning,3.1.0,59.952803593185514,
,,,hiragana2.xlsx,hiragana21.xlsx,hiragana22.xlsx,,,,,,,J,V,B,E,None,m,,,,,0,0,0,1,,,,,1,36,82,30,,,,,,,,,,,,,,,,,,,,,,,,,,,,,,,,,,,,,,,,,,,,,,,0.6,,,,,,,,,,,,,,,,,,,,,,,,,,,,,,,,0,1,230.8651478792308,231.81545979296789,231.83200640860014,None,231.83200640860014,None,m,0.016978717176243663,231.83200640860014,None,,,,,,,,,2019_May_27_1746,Probabilistic Learning,3.1.0,59.952803593185514,
,,,hiragana2.xlsx,hiragana21.xlsx,hiragana22.xlsx,,,,,,,s,V,A,E,c,None,,,,,0,0,0,1,,,,,1,37,83,14,,,,,,,,,,,,,,,,,,,,,,,,,,,,,,,,,,,,,,,,,,,,,,,0.7,,,,,,,,,,,,,,,,,,,,,,,,,,,,,,,,0,0,231.86561744334176,232.68190705601592,232.68190705601592,None,232.68190705601592,None,m,0.21687700401525944,232.68190705601592,None,,,,,,,,,2019_May_27_1746,Probabilistic Learning,3.1.0,59.952803593185514,
,,,hiragana2.xlsx,hiragana21.xlsx,hiragana22.xlsx,,,,,,,o,J,C,B,None,c,,,,,0,0,0,1,,,,,1,38,84,25,,,,,,,,,,,,,,,,,,,,,,,,,,,,,,,,,,,,,,,,,,,,,,,0.4,,,,,,,,,,,,,,,,,,,,,,,,,,,,,,,,0,0,232.9159480369417,233.74864416581113,233.7653544874629,None,233.7653544874629,None,m,0.18351537710987031,233.7653544874629,None,,,,,,,,,2019_May_27_1746,Probabilistic Learning,3.1.0,59.952803593185514,
,,,hiragana2.xlsx,hiragana21.xlsx,hiragana22.xlsx,,,,,,,J,o,B,C,None,m,,,,,0,0,0,1,,,,,1,39,85,23,,,,,,,,,,,,,,,,,,,,,,,,,,,,,,,,,,,,,,,,,,,,,,,0.6,,,,,,,,,,,,,,,,,,,,,,,,,,,,,,,,0,1,233.96605436876416,234.66556314832997,234.6820569059346,None,234.6820569059346,None,m,0.21702788036782295,234.6820569059346,None,,,,,,,,,2019_May_27_1746,Probabilistic Learning,3.1.0,59.952803593185514,
,,,hiragana2.xlsx,hiragana21.xlsx,hiragana22.xlsx,,,,,,,o,W,c,f,None,None,,,,,0,0,0,1,,,,,1,40,86,40,,,,,,,,,,,,,,,,,,,,,,,,,,,,,,,,,,,,,,,,,,,,,,,0.6,,,,,,,,,,,,,,,,,,,,,,,,,,,,,,,,0,0,234.91587824374437,235.448820085614,235.448820085614,None,235.448820085614,None,m,0.31682537752203643,235.448820085614,None,,,,,,,,,2019_May_27_1746,Probabilistic Learning,3.1.0,59.952803593185514,
,,,hiragana2.xlsx,hiragana21.xlsx,hiragana22.xlsx,,,,,,,b,W,d,f,None,None,,,,,0,0,0,1,,,,,1,41,87,44,,,,,,,,,,,,,,,,,,,,,,,,,,,,,,,,,,,,,,,,,,,,,,,0.3,,,,,,,,,,,,,,,,,,,,,,,,,,,,,,,,0,0,235.7823583506979,236.64873530750629,236.66552055405919,None,236.66552055405919,None,m,0.11749569943640381,236.66552055405919,None,,,,,,,,,2019_May_27_1746,Probabilistic Learning,3.1.0,59.952803593185514,
,,,hiragana2.xlsx,hiragana21.xlsx,hiragana22.xlsx,,,,,,,s,W,A,F,c,None,,,,,0,0,0,1,,,,,1,42,88,18,,,,,,,,,,,,,,,,,,,,,,,,,,,,,,,,,,,,,,,,,,,,,,,0.6,,,,,,,,,,,,,,,,,,,,,,,,,,,,,,,,0,0,236.7986309257103,237.7988249094924,237.7988249094924,None,237.7988249094924,None,m,0.0002083530416712165,237.7988249094924,None,,,,,,,,,2019_May_27_1746,Probabilistic Learning,3.1.0,59.952803593185514,
,,,hiragana2.xlsx,hiragana21.xlsx,hiragana22.xlsx,,,,,,,W,J,F,B,None,c,,,,,0,0,0,1,,,,,1,43,89,36,,,,,,,,,,,,,,,,,,,,,,,,,,,,,,,,,,,,,,,,,,,,,,,0.6,,,,,,,,,,,,,,,,,,,,,,,,,,,,,,,,0,0,237.8158333915053,238.58236563787796,238.5988948052982,None,238.5988948052982,None,m,0.1842964441748336,238.5988948052982,None,,,,,,,,,2019_May_27_1746,Probabilistic Learning,3.1.0,59.952803593185514,
,,,hiragana2.xlsx,hiragana21.xlsx,hiragana22.xlsx,,,,,,,s,b,A,D,c,None,,,,,0,0,0,1,,,,,1,44,90,11,,,,,,,,,,,,,,,,,,,,,,,,,,,,,,,,,,,,,,,,,,,,,,,0.6,,,,,,,,,,,,,,,,,,,,,,,,,,,,,,,,0,0,238.80099157546647,239.39895187143702,239.41560830862727,None,239.41560830862727,None,m,0.2501318884314969,239.41560830862727,None,,,,,,,,,2019_May_27_1746,Probabilistic Learning,3.1.0,59.952803593185514,
,,,hiragana2.xlsx,hiragana21.xlsx,hiragana22.xlsx,,,,,,,J,W,B,F,None,m,,,,,0,0,0,1,,,,,1,45,91,34,,,,,,,,,,,,,,,,,,,,,,,,,,,,,,,,,,,,,,,,,,,,,,,0.7,,,,,,,,,,,,,,,,,,,,,,,,,,,,,,,,0,1,239.68264347617514,240.49911937490106,240.49911937490106,None,240.49911937490106,None,m,0.1346884147496894,240.49911937490106,None,,,,,,,,,2019_May_27_1746,Probabilistic Learning,3.1.0,59.952803593185514,
,,,,,,,,,,,,,,,,,,,,,,,,,,,,,,,,,,,,,,,,,,,,,,,,,,,,,,,,,,,,,,,,,,,,,,,,,,,,,,,,,,,,,,,,,,,,,,,,,,,,,,,,,,,,,,,,,,,,,,,,,,,,240.64897650433704,None,space,10.950933893560432,240.64897650433704,None,,,,,,,
