welc_resp.keys,welc_resp.rt,instr0_resp.keys,instr0_resp.rt,prep_resp.keys,prep_resp.corr,prep_resp.rt,preparation.thisRepN,preparation.thisTrialN,preparation.thisN,preparation.thisIndex,preparation.ran,preparation.order,letter10,letter20,corrAns0,participant,,date,expName,psychopyVersion,frameRate,outro_resp.keys,outro_resp.rt,instr1_resp.keys,instr1_resp.rt,resp.keys,resp.corr,resp.rt,letterMaster.thisRepN,letterMaster.thisTrialN,letterMaster.thisN,letterMaster.thisIndex,letterMaster.ran,letterMaster.order,letterset,letterset2,practice.thisRepN,practice.thisTrialN,practice.thisN,practice.thisIndex,practice.ran,practice.order,letter1,letter2,corrAns,letterA,letterC,letterE,instr2_resp.keys,instr2_resp.rt,instr3_resp.keys,instr3_resp.rt,test_resp.keys,test_resp.rt,test.thisRepN,test.thisTrialN,test.thisN,test.thisIndex,test.ran,test.order,letter3,letter4,letterA2,letterB2,pickA,avoidB,outro_resp2.keys,outro_resp2.rt
space,0.93,space,0.478,m,0,0.731,1,0,10,4,1,9,U,L,c,,,2019-05-23_22h13.12.454,Probabilistic Learning,3.1.0,60,,,,,,,,,,,,,,,,,,,,,,,,,,,,,,,,,,,,,,,,,,,,,,,
,,,,c,1,0.227,1,0,10,6,1,9,U,L,c,,,2019-05-23_22h13.12.454,Probabilistic Learning,3.1.0,60,,,,,,,,,,,,,,,,,,,,,,,,,,,,,,,,,,,,,,,,,,,,,,,
,,,,c,1,0.309,1,0,10,0,1,9,U,L,c,,,2019-05-23_22h13.12.454,Probabilistic Learning,3.1.0,60,,,,,,,,,,,,,,,,,,,,,,,,,,,,,,,,,,,,,,,,,,,,,,,
,,,,c,1,0.343,1,0,10,1,1,9,U,L,c,,,2019-05-23_22h13.12.454,Probabilistic Learning,3.1.0,60,,,,,,,,,,,,,,,,,,,,,,,,,,,,,,,,,,,,,,,,,,,,,,,
,,,,c,0,0.313,1,0,10,9,1,9,U,L,m,,,2019-05-23_22h13.12.454,Probabilistic Learning,3.1.0,60,,,,,,,,,,,,,,,,,,,,,,,,,,,,,,,,,,,,,,,,,,,,,,,
,,,,c,1,0.327,1,0,10,5,1,9,U,L,c,,,2019-05-23_22h13.12.454,Probabilistic Learning,3.1.0,60,,,,,,,,,,,,,,,,,,,,,,,,,,,,,,,,,,,,,,,,,,,,,,,
,,,,m,1,0.394,1,0,10,3,1,9,L,U,m,,,2019-05-23_22h13.12.454,Probabilistic Learning,3.1.0,60,,,,,,,,,,,,,,,,,,,,,,,,,,,,,,,,,,,,,,,,,,,,,,,
,,,,m,1,0.364,1,0,10,7,1,9,L,U,m,,,2019-05-23_22h13.12.454,Probabilistic Learning,3.1.0,60,,,,,,,,,,,,,,,,,,,,,,,,,,,,,,,,,,,,,,,,,,,,,,,
,,,,m,1,0.327,1,0,10,2,1,9,L,U,m,,,2019-05-23_22h13.12.454,Probabilistic Learning,3.1.0,60,,,,,,,,,,,,,,,,,,,,,,,,,,,,,,,,,,,,,,,,,,,,,,,
,,,,m,0,0.326,1,0,10,8,1,9,L,U,c,,,2019-05-23_22h13.12.454,Probabilistic Learning,3.1.0,60,,,,,,,,,,,,,,,,,,,,,,,,,,,,,,,,,,,,,,,,,,,,,,,
,,,,,,,,,,,,,,,,,,2019-05-23_22h13.12.454,Probabilistic Learning,3.1.0,60,space,0.76,space,0.418,m,0,0.354,1,0,6,0,1,5,hiragana1.xlsx,hiragana11.xlsx,6,0,180,29,1,179,L,I,c,,,m,,,,,,,,,,,,,,,,,,,,
,,,,,,,,,,,,,,,,,,2019-05-23_22h13.12.454,Probabilistic Learning,3.1.0,60,,,,,c,1,0.357,1,0,6,0,1,5,hiragana1.xlsx,hiragana11.xlsx,6,0,180,1,1,179,A,a,c,c,,,,,,,,,,,,,,,,,,,,,,
,,,,,,,,,,,,,,,,,,2019-05-23_22h13.12.454,Probabilistic Learning,3.1.0,60,,,,,m,1,0.379,1,0,6,0,1,5,hiragana1.xlsx,hiragana11.xlsx,6,0,180,25,1,179,L,I,m,,,m,,,,,,,,,,,,,,,,,,,,
,,,,,,,,,,,,,,,,,,2019-05-23_22h13.12.454,Probabilistic Learning,3.1.0,60,,,,,m,0,0.394,1,0,6,0,1,5,hiragana1.xlsx,hiragana11.xlsx,6,0,180,28,1,179,L,I,c,,,m,,,,,,,,,,,,,,,,,,,,
,,,,,,,,,,,,,,,,,,2019-05-23_22h13.12.454,Probabilistic Learning,3.1.0,60,,,,,c,1,0.395,1,0,6,0,1,5,hiragana1.xlsx,hiragana11.xlsx,6,0,180,2,1,179,A,a,c,c,,,,,,,,,,,,,,,,,,,,,,
,,,,,,,,,,,,,,,,,,2019-05-23_22h13.12.454,Probabilistic Learning,3.1.0,60,,,,,m,1,0.327,1,0,6,0,1,5,hiragana1.xlsx,hiragana11.xlsx,6,0,180,5,1,179,a,A,m,m,,,,,,,,,,,,,,,,,,,,,,
,,,,,,,,,,,,,,,,,,2019-05-23_22h13.12.454,Probabilistic Learning,3.1.0,60,,,,,m,1,0.672,1,0,6,0,1,5,hiragana1.xlsx,hiragana11.xlsx,6,0,180,14,1,179,d,O,m,,m,,,,,,,,,,,,,,,,,,,,,
,,,,,,,,,,,,,,,,,,2019-05-23_22h13.12.454,Probabilistic Learning,3.1.0,60,,,,,m,0,0.491,1,0,6,0,1,5,hiragana1.xlsx,hiragana11.xlsx,6,0,180,17,1,179,d,O,c,,m,,,,,,,,,,,,,,,,,,,,,
,,,,,,,,,,,,,,,,,,2019-05-23_22h13.12.454,Probabilistic Learning,3.1.0,60,,,,,c,0,0.493,1,0,6,0,1,5,hiragana1.xlsx,hiragana11.xlsx,6,0,180,8,1,179,A,a,m,c,,,,,,,,,,,,,,,,,,,,,,
,,,,,,,,,,,,,,,,,,2019-05-23_22h13.12.454,Probabilistic Learning,3.1.0,60,,,,,m,0,0.376,1,0,6,0,1,5,hiragana1.xlsx,hiragana11.xlsx,6,0,180,9,1,179,a,A,c,m,,,,,,,,,,,,,,,,,,,,,,
,,,,,,,,,,,,,,,,,,2019-05-23_22h13.12.454,Probabilistic Learning,3.1.0,60,,,,,c,1,0.392,1,0,6,0,1,5,hiragana1.xlsx,hiragana11.xlsx,6,0,180,21,1,179,I,L,c,,,c,,,,,,,,,,,,,,,,,,,,
,,,,,,,,,,,,,,,,,,2019-05-23_22h13.12.454,Probabilistic Learning,3.1.0,60,,,,,c,1,0.396,1,0,6,0,1,5,hiragana1.xlsx,hiragana11.xlsx,6,0,180,20,1,179,I,L,c,,,c,,,,,,,,,,,,,,,,,,,,
,,,,,,,,,,,,,,,,,,2019-05-23_22h13.12.454,Probabilistic Learning,3.1.0,60,,,,,m,1,0.344,1,0,6,0,1,5,hiragana1.xlsx,hiragana11.xlsx,6,0,180,7,1,179,a,A,m,m,,,,,,,,,,,,,,,,,,,,,,
,,,,,,,,,,,,,,,,,,2019-05-23_22h13.12.454,Probabilistic Learning,3.1.0,60,,,,,c,1,0.425,1,0,6,0,1,5,hiragana1.xlsx,hiragana11.xlsx,6,0,180,0,1,179,A,a,c,c,,,,,,,,,,,,,,,,,,,,,,
,,,,,,,,,,,,,,,,,,2019-05-23_22h13.12.454,Probabilistic Learning,3.1.0,60,,,,,m,0,0.511,1,0,6,0,1,5,hiragana1.xlsx,hiragana11.xlsx,6,0,180,18,1,179,d,O,c,,m,,,,,,,,,,,,,,,,,,,,,
,,,,,,,,,,,,,,,,,,2019-05-23_22h13.12.454,Probabilistic Learning,3.1.0,60,,,,,c,1,0.43,1,0,6,0,1,5,hiragana1.xlsx,hiragana11.xlsx,6,0,180,13,1,179,O,d,c,,c,,,,,,,,,,,,,,,,,,,,,
,,,,,,,,,,,,,,,,,,2019-05-23_22h13.12.454,Probabilistic Learning,3.1.0,60,,,,,c,0,0.413,1,0,6,0,1,5,hiragana1.xlsx,hiragana11.xlsx,6,0,180,19,1,179,O,d,m,,c,,,,,,,,,,,,,,,,,,,,,
,,,,,,,,,,,,,,,,,,2019-05-23_22h13.12.454,Probabilistic Learning,3.1.0,60,,,,,c,1,0.425,1,0,6,0,1,5,hiragana1.xlsx,hiragana11.xlsx,6,0,180,10,1,179,O,d,c,,c,,,,,,,,,,,,,,,,,,,,,
,,,,,,,,,,,,,,,,,,2019-05-23_22h13.12.454,Probabilistic Learning,3.1.0,60,,,,,c,0,0.477,1,0,6,0,1,5,hiragana1.xlsx,hiragana11.xlsx,6,0,180,16,1,179,d,O,m,,m,,,,,,,,,,,,,,,,,,,,,
,,,,,,,,,,,,,,,,,,2019-05-23_22h13.12.454,Probabilistic Learning,3.1.0,60,,,,,c,1,0.443,1,0,6,0,1,5,hiragana1.xlsx,hiragana11.xlsx,6,0,180,22,1,179,I,L,c,,,c,,,,,,,,,,,,,,,,,,,,
,,,,,,,,,,,,,,,,,,2019-05-23_22h13.12.454,Probabilistic Learning,3.1.0,60,,,,,m,0,0.413,1,0,6,0,1,5,hiragana1.xlsx,hiragana11.xlsx,6,0,180,3,1,179,A,a,c,c,,,,,,,,,,,,,,,,,,,,,,
,,,,,,,,,,,,,,,,,,2019-05-23_22h13.12.454,Probabilistic Learning,3.1.0,60,,,,,m,1,0.426,1,0,6,0,1,5,hiragana1.xlsx,hiragana11.xlsx,6,0,180,6,1,179,a,A,m,m,,,,,,,,,,,,,,,,,,,,,,
,,,,,,,,,,,,,,,,,,2019-05-23_22h13.12.454,Probabilistic Learning,3.1.0,60,,,,,m,1,0.543,1,0,6,0,1,5,hiragana1.xlsx,hiragana11.xlsx,6,0,180,24,1,179,L,I,m,,,m,,,,,,,,,,,,,,,,,,,,
,,,,,,,,,,,,,,,,,,2019-05-23_22h13.12.454,Probabilistic Learning,3.1.0,60,,,,,m,1,0.378,1,0,6,0,1,5,hiragana1.xlsx,hiragana11.xlsx,6,0,180,23,1,179,L,I,m,,,m,,,,,,,,,,,,,,,,,,,,
,,,,,,,,,,,,,,,,,,2019-05-23_22h13.12.454,Probabilistic Learning,3.1.0,60,,,,,m,1,0.394,1,0,6,0,1,5,hiragana1.xlsx,hiragana11.xlsx,6,0,180,4,1,179,a,A,m,m,,,,,,,,,,,,,,,,,,,,,,
,,,,,,,,,,,,,,,,,,2019-05-23_22h13.12.454,Probabilistic Learning,3.1.0,60,,,,,c,1,0.929,1,0,6,0,1,5,hiragana1.xlsx,hiragana11.xlsx,6,0,180,12,1,179,O,d,c,,c,,,,,,,,,,,,,,,,,,,,,
,,,,,,,,,,,,,,,,,,2019-05-23_22h13.12.454,Probabilistic Learning,3.1.0,60,,,,,c,0,0.476,1,0,6,0,1,5,hiragana1.xlsx,hiragana11.xlsx,6,0,180,27,1,179,I,L,m,,,c,,,,,,,,,,,,,,,,,,,,
,,,,,,,,,,,,,,,,,,2019-05-23_22h13.12.454,Probabilistic Learning,3.1.0,60,,,,,c,0,0.363,1,0,6,0,1,5,hiragana1.xlsx,hiragana11.xlsx,6,0,180,26,1,179,I,L,m,,,c,,,,,,,,,,,,,,,,,,,,
,,,,,,,,,,,,,,,,,,2019-05-23_22h13.12.454,Probabilistic Learning,3.1.0,60,,,,,m,1,0.546,1,0,6,0,1,5,hiragana1.xlsx,hiragana11.xlsx,6,0,180,15,1,179,d,O,m,,m,,,,,,,,,,,,,,,,,,,,,
,,,,,,,,,,,,,,,,,,2019-05-23_22h13.12.454,Probabilistic Learning,3.1.0,60,,,,,c,1,0.408,1,0,6,0,1,5,hiragana1.xlsx,hiragana11.xlsx,6,0,180,11,1,179,O,d,c,,c,,,,,,,,,,,,,,,,,,,,,
,,,,,,,,,,,,,,,,,,2019-05-23_22h13.12.454,Probabilistic Learning,3.1.0,60,,,,,m,1,0.426,1,0,6,0,1,5,hiragana1.xlsx,hiragana11.xlsx,6,0,180,23,1,179,L,I,m,,,m,,,,,,,,,,,,,,,,,,,,
,,,,,,,,,,,,,,,,,,2019-05-23_22h13.12.454,Probabilistic Learning,3.1.0,60,,,,,c,0,0.581,1,0,6,0,1,5,hiragana1.xlsx,hiragana11.xlsx,6,0,180,19,1,179,O,d,m,,c,,,,,,,,,,,,,,,,,,,,,
,,,,,,,,,,,,,,,,,,2019-05-23_22h13.12.454,Probabilistic Learning,3.1.0,60,,,,,m,1,0.43,1,0,6,0,1,5,hiragana1.xlsx,hiragana11.xlsx,6,0,180,7,1,179,a,A,m,m,,,,,,,,,,,,,,,,,,,,,,
,,,,,,,,,,,,,,,,,,2019-05-23_22h13.12.454,Probabilistic Learning,3.1.0,60,,,,,c,1,0.445,1,0,6,0,1,5,hiragana1.xlsx,hiragana11.xlsx,6,0,180,20,1,179,I,L,c,,,c,,,,,,,,,,,,,,,,,,,,
,,,,,,,,,,,,,,,,,,2019-05-23_22h13.12.454,Probabilistic Learning,3.1.0,60,,,,,m,0,0.394,1,0,6,0,1,5,hiragana1.xlsx,hiragana11.xlsx,6,0,180,28,1,179,L,I,c,,,m,,,,,,,,,,,,,,,,,,,,
,,,,,,,,,,,,,,,,,,2019-05-23_22h13.12.454,Probabilistic Learning,3.1.0,60,,,,,m,1,0.362,1,0,6,0,1,5,hiragana1.xlsx,hiragana11.xlsx,6,0,180,5,1,179,a,A,m,m,,,,,,,,,,,,,,,,,,,,,,
,,,,,,,,,,,,,,,,,,2019-05-23_22h13.12.454,Probabilistic Learning,3.1.0,60,,,,,c,1,0.395,1,0,6,0,1,5,hiragana1.xlsx,hiragana11.xlsx,6,0,180,0,1,179,A,a,c,c,,,,,,,,,,,,,,,,,,,,,,
,,,,,,,,,,,,,,,,,,2019-05-23_22h13.12.454,Probabilistic Learning,3.1.0,60,,,,,m,1,0.443,1,0,6,0,1,5,hiragana1.xlsx,hiragana11.xlsx,6,0,180,15,1,179,d,O,m,,m,,,,,,,,,,,,,,,,,,,,,
,,,,,,,,,,,,,,,,,,2019-05-23_22h13.12.454,Probabilistic Learning,3.1.0,60,,,,,m,1,0.426,1,0,6,0,1,5,hiragana1.xlsx,hiragana11.xlsx,6,0,180,6,1,179,a,A,m,m,,,,,,,,,,,,,,,,,,,,,,
,,,,,,,,,,,,,,,,,,2019-05-23_22h13.12.454,Probabilistic Learning,3.1.0,60,,,,,c,1,0.409,1,0,6,0,1,5,hiragana1.xlsx,hiragana11.xlsx,6,0,180,21,1,179,I,L,c,,,c,,,,,,,,,,,,,,,,,,,,
,,,,,,,,,,,,,,,,,,2019-05-23_22h13.12.454,Probabilistic Learning,3.1.0,60,,,,,c,1,0.546,1,0,6,0,1,5,hiragana1.xlsx,hiragana11.xlsx,6,0,180,11,1,179,O,d,c,,c,,,,,,,,,,,,,,,,,,,,,
,,,,,,,,,,,,,,,,,,2019-05-23_22h13.12.454,Probabilistic Learning,3.1.0,60,,,,,c,1,0.427,1,0,6,0,1,5,hiragana1.xlsx,hiragana11.xlsx,6,0,180,13,1,179,O,d,c,,c,,,,,,,,,,,,,,,,,,,,,
,,,,,,,,,,,,,,,,,,2019-05-23_22h13.12.454,Probabilistic Learning,3.1.0,60,,,,,m,1,0.362,1,0,6,0,1,5,hiragana1.xlsx,hiragana11.xlsx,6,0,180,25,1,179,L,I,m,,,m,,,,,,,,,,,,,,,,,,,,
,,,,,,,,,,,,,,,,,,2019-05-23_22h13.12.454,Probabilistic Learning,3.1.0,60,,,,,c,1,0.427,1,0,6,0,1,5,hiragana1.xlsx,hiragana11.xlsx,6,0,180,12,1,179,O,d,c,,c,,,,,,,,,,,,,,,,,,,,,
,,,,,,,,,,,,,,,,,,2019-05-23_22h13.12.454,Probabilistic Learning,3.1.0,60,,,,,c,0,0.427,1,0,6,0,1,5,hiragana1.xlsx,hiragana11.xlsx,6,0,180,8,1,179,A,a,m,c,,,,,,,,,,,,,,,,,,,,,,
,,,,,,,,,,,,,,,,,,2019-05-23_22h13.12.454,Probabilistic Learning,3.1.0,60,,,,,c,0,0.363,1,0,6,0,1,5,hiragana1.xlsx,hiragana11.xlsx,6,0,180,26,1,179,I,L,m,,,c,,,,,,,,,,,,,,,,,,,,
,,,,,,,,,,,,,,,,,,2019-05-23_22h13.12.454,Probabilistic Learning,3.1.0,60,,,,,m,1,0.513,1,0,6,0,1,5,hiragana1.xlsx,hiragana11.xlsx,6,0,180,14,1,179,d,O,m,,m,,,,,,,,,,,,,,,,,,,,,
,,,,,,,,,,,,,,,,,,2019-05-23_22h13.12.454,Probabilistic Learning,3.1.0,60,,,,,m,0,0.445,1,0,6,0,1,5,hiragana1.xlsx,hiragana11.xlsx,6,0,180,29,1,179,L,I,c,,,m,,,,,,,,,,,,,,,,,,,,
,,,,,,,,,,,,,,,,,,2019-05-23_22h13.12.454,Probabilistic Learning,3.1.0,60,,,,,c,1,0.393,1,0,6,0,1,5,hiragana1.xlsx,hiragana11.xlsx,6,0,180,22,1,179,I,L,c,,,c,,,,,,,,,,,,,,,,,,,,
,,,,,,,,,,,,,,,,,,2019-05-23_22h13.12.454,Probabilistic Learning,3.1.0,60,,,,,c,0,0.393,1,0,6,0,1,5,hiragana1.xlsx,hiragana11.xlsx,6,0,180,27,1,179,I,L,m,,,c,,,,,,,,,,,,,,,,,,,,
,,,,,,,,,,,,,,,,,,2019-05-23_22h13.12.454,Probabilistic Learning,3.1.0,60,,,,,c,1,0.478,1,0,6,0,1,5,hiragana1.xlsx,hiragana11.xlsx,6,0,180,3,1,179,A,a,c,c,,,,,,,,,,,,,,,,,,,,,,
,,,,,,,,,,,,,,,,,,2019-05-23_22h13.12.454,Probabilistic Learning,3.1.0,60,,,,,m,0,0.443,1,0,6,0,1,5,hiragana1.xlsx,hiragana11.xlsx,6,0,180,18,1,179,d,O,c,,m,,,,,,,,,,,,,,,,,,,,,
,,,,,,,,,,,,,,,,,,2019-05-23_22h13.12.454,Probabilistic Learning,3.1.0,60,,,,,m,1,0.393,1,0,6,0,1,5,hiragana1.xlsx,hiragana11.xlsx,6,0,180,24,1,179,L,I,m,,,m,,,,,,,,,,,,,,,,,,,,
,,,,,,,,,,,,,,,,,,2019-05-23_22h13.12.454,Probabilistic Learning,3.1.0,60,,,,,m,0,0.377,1,0,6,0,1,5,hiragana1.xlsx,hiragana11.xlsx,6,0,180,17,1,179,d,O,c,,m,,,,,,,,,,,,,,,,,,,,,
,,,,,,,,,,,,,,,,,,2019-05-23_22h13.12.454,Probabilistic Learning,3.1.0,60,,,,,m,1,0.41,1,0,6,0,1,5,hiragana1.xlsx,hiragana11.xlsx,6,0,180,4,1,179,a,A,m,m,,,,,,,,,,,,,,,,,,,,,,
,,,,,,,,,,,,,,,,,,2019-05-23_22h13.12.454,Probabilistic Learning,3.1.0,60,,,,,c,1,0.379,1,0,6,0,1,5,hiragana1.xlsx,hiragana11.xlsx,6,0,180,2,1,179,A,a,c,c,,,,,,,,,,,,,,,,,,,,,,
,,,,,,,,,,,,,,,,,,2019-05-23_22h13.12.454,Probabilistic Learning,3.1.0,60,,,,,c,1,0.409,1,0,6,0,1,5,hiragana1.xlsx,hiragana11.xlsx,6,0,180,1,1,179,A,a,c,c,,,,,,,,,,,,,,,,,,,,,,
,,,,,,,,,,,,,,,,,,2019-05-23_22h13.12.454,Probabilistic Learning,3.1.0,60,,,,,m,0,0.361,1,0,6,0,1,5,hiragana1.xlsx,hiragana11.xlsx,6,0,180,9,1,179,a,A,c,m,,,,,,,,,,,,,,,,,,,,,,
,,,,,,,,,,,,,,,,,,2019-05-23_22h13.12.454,Probabilistic Learning,3.1.0,60,,,,,c,1,0.511,1,0,6,0,1,5,hiragana1.xlsx,hiragana11.xlsx,6,0,180,10,1,179,O,d,c,,c,,,,,,,,,,,,,,,,,,,,,
,,,,,,,,,,,,,,,,,,2019-05-23_22h13.12.454,Probabilistic Learning,3.1.0,60,,,,,m,1,0.409,1,0,6,0,1,5,hiragana1.xlsx,hiragana11.xlsx,,,,,,,,,,,,,space,1.423,space,0.659,m,0.178,2,0,92,44,1,91,d,L,d,f,,,,
,,,,,,,,,,,,,,,,,,2019-05-23_22h13.12.454,Probabilistic Learning,3.1.0,60,,,,,,,,1,0,6,0,1,5,hiragana1.xlsx,hiragana11.xlsx,,,,,,,,,,,,,,,,,m,0.195,2,0,92,14,1,91,A,I,A,E,c,,,
,,,,,,,,,,,,,,,,,,2019-05-23_22h13.12.454,Probabilistic Learning,3.1.0,60,,,,,,,,1,0,6,0,1,5,hiragana1.xlsx,hiragana11.xlsx,,,,,,,,,,,,,,,,,m,0.262,2,0,92,5,1,91,L,I,F,E,,,,
,,,,,,,,,,,,,,,,,,2019-05-23_22h13.12.454,Probabilistic Learning,3.1.0,60,,,,,,,,1,0,6,0,1,5,hiragana1.xlsx,hiragana11.xlsx,,,,,,,,,,,,,,,,,m,0.21,2,0,92,26,1,91,a,d,B,D,,m,,
,,,,,,,,,,,,,,,,,,2019-05-23_22h13.12.454,Probabilistic Learning,3.1.0,60,,,,,,,,1,0,6,0,1,5,hiragana1.xlsx,hiragana11.xlsx,,,,,,,,,,,,,,,,,m,0.209,2,0,92,18,1,91,A,L,A,F,c,,,
,,,,,,,,,,,,,,,,,,2019-05-23_22h13.12.454,Probabilistic Learning,3.1.0,60,,,,,,,,1,0,6,0,1,5,hiragana1.xlsx,hiragana11.xlsx,,,,,,,,,,,,,,,,,m,0.027,2,0,92,35,1,91,a,L,B,F,,m,,
,,,,,,,,,,,,,,,,,,2019-05-23_22h13.12.454,Probabilistic Learning,3.1.0,60,,,,,,,,1,0,6,0,1,5,hiragana1.xlsx,hiragana11.xlsx,,,,,,,,,,,,,,,,,m,0.177,2,0,92,12,1,91,d,A,D,A,m,,,
,,,,,,,,,,,,,,,,,,2019-05-23_22h13.12.454,Probabilistic Learning,3.1.0,60,,,,,,,,1,0,6,0,1,5,hiragana1.xlsx,hiragana11.xlsx,,,,,,,,,,,,,,,,,m,0.11,2,0,92,1,1,91,a,A,B,A,,,,
,,,,,,,,,,,,,,,,,,2019-05-23_22h13.12.454,Probabilistic Learning,3.1.0,60,,,,,,,,1,0,6,0,1,5,hiragana1.xlsx,hiragana11.xlsx,,,,,,,,,,,,,,,,,m,0.142,2,0,92,13,1,91,d,A,D,A,m,,,
,,,,,,,,,,,,,,,,,,2019-05-23_22h13.12.454,Probabilistic Learning,3.1.0,60,,,,,,,,1,0,6,0,1,5,hiragana1.xlsx,hiragana11.xlsx,,,,,,,,,,,,,,,,,m,0.076,2,0,92,37,1,91,L,a,F,B,,c,,
,,,,,,,,,,,,,,,,,,2019-05-23_22h13.12.454,Probabilistic Learning,3.1.0,60,,,,,,,,1,0,6,0,1,5,hiragana1.xlsx,hiragana11.xlsx,,,,,,,,,,,,,,,,,m,0.229,2,0,92,39,1,91,I,O,e,c,,,,
,,,,,,,,,,,,,,,,,,2019-05-23_22h13.12.454,Probabilistic Learning,3.1.0,60,,,,,,,,1,0,6,0,1,5,hiragana1.xlsx,hiragana11.xlsx,,,,,,,,,,,,,,,,,m,0.177,2,0,92,0,1,91,A,a,A,B,,,,
,,,,,,,,,,,,,,,,,,2019-05-23_22h13.12.454,Probabilistic Learning,3.1.0,60,,,,,,,,1,0,6,0,1,5,hiragana1.xlsx,hiragana11.xlsx,,,,,,,,,,,,,,,,,m,0.163,2,0,92,11,1,91,A,d,A,D,c,,,
,,,,,,,,,,,,,,,,,,2019-05-23_22h13.12.454,Probabilistic Learning,3.1.0,60,,,,,,,,1,0,6,0,1,5,hiragana1.xlsx,hiragana11.xlsx,,,,,,,,,,,,,,,,,m,0.192,2,0,92,19,1,91,A,L,A,F,c,,,
,,,,,,,,,,,,,,,,,,2019-05-23_22h13.12.454,Probabilistic Learning,3.1.0,60,,,,,,,,1,0,6,0,1,5,hiragana1.xlsx,hiragana11.xlsx,,,,,,,,,,,,,,,,,m,0.177,2,0,92,25,1,91,O,a,C,B,,c,,
,,,,,,,,,,,,,,,,,,2019-05-23_22h13.12.454,Probabilistic Learning,3.1.0,60,,,,,,,,1,0,6,0,1,5,hiragana1.xlsx,hiragana11.xlsx,,,,,,,,,,,,,,,,,m,0.177,2,0,92,3,1,91,d,O,D,C,,,,
,,,,,,,,,,,,,,,,,,2019-05-23_22h13.12.454,Probabilistic Learning,3.1.0,60,,,,,,,,1,0,6,0,1,5,hiragana1.xlsx,hiragana11.xlsx,,,,,,,,,,,,,,,,,m,0.195,2,0,92,36,1,91,L,a,F,B,,c,,
,,,,,,,,,,,,,,,,,,2019-05-23_22h13.12.454,Probabilistic Learning,3.1.0,60,,,,,,,,1,0,6,0,1,5,hiragana1.xlsx,hiragana11.xlsx,,,,,,,,,,,,,,,,,m,0.125,2,0,92,28,1,91,d,a,D,B,,c,,
,,,,,,,,,,,,,,,,,,2019-05-23_22h13.12.454,Probabilistic Learning,3.1.0,60,,,,,,,,1,0,6,0,1,5,hiragana1.xlsx,hiragana11.xlsx,,,,,,,,,,,,,,,,,m,0.327,2,0,92,10,1,91,A,d,A,D,c,,,
,,,,,,,,,,,,,,,,,,2019-05-23_22h13.12.454,Probabilistic Learning,3.1.0,60,,,,,,,,1,0,6,0,1,5,hiragana1.xlsx,hiragana11.xlsx,,,,,,,,,,,,,,,,,m,0.192,2,0,92,34,1,91,a,L,B,F,,m,,
,,,,,,,,,,,,,,,,,,2019-05-23_22h13.12.454,Probabilistic Learning,3.1.0,60,,,,,,,,1,0,6,0,1,5,hiragana1.xlsx,hiragana11.xlsx,,,,,,,,,,,,,,,,,m,0.046,2,0,92,32,1,91,I,a,E,B,,c,,
,,,,,,,,,,,,,,,,,,2019-05-23_22h13.12.454,Probabilistic Learning,3.1.0,60,,,,,,,,1,0,6,0,1,5,hiragana1.xlsx,hiragana11.xlsx,,,,,,,,,,,,,,,,,m,0.178,2,0,92,21,1,91,L,A,F,A,m,,,
,,,,,,,,,,,,,,,,,,2019-05-23_22h13.12.454,Probabilistic Learning,3.1.0,60,,,,,,,,1,0,6,0,1,5,hiragana1.xlsx,hiragana11.xlsx,,,,,,,,,,,,,,,,,m,0.21,2,0,92,8,1,91,O,A,C,A,m,,,
,,,,,,,,,,,,,,,,,,2019-05-23_22h13.12.454,Probabilistic Learning,3.1.0,60,,,,,,,,1,0,6,0,1,5,hiragana1.xlsx,hiragana11.xlsx,,,,,,,,,,,,,,,,,m,0.193,2,0,92,38,1,91,O,I,C,E,,,,
,,,,,,,,,,,,,,,,,,2019-05-23_22h13.12.454,Probabilistic Learning,3.1.0,60,,,,,,,,1,0,6,0,1,5,hiragana1.xlsx,hiragana11.xlsx,,,,,,,,,,,,,,,,,m,0.277,2,0,92,31,1,91,a,I,B,E,,m,,
,,,,,,,,,,,,,,,,,,2019-05-23_22h13.12.454,Probabilistic Learning,3.1.0,60,,,,,,,,1,0,6,0,1,5,hiragana1.xlsx,hiragana11.xlsx,,,,,,,,,,,,,,,,,m,0.127,2,0,92,22,1,91,a,O,B,C,,m,,
,,,,,,,,,,,,,,,,,,2019-05-23_22h13.12.454,Probabilistic Learning,3.1.0,60,,,,,,,,1,0,6,0,1,5,hiragana1.xlsx,hiragana11.xlsx,,,,,,,,,,,,,,,,,m,0.027,2,0,92,9,1,91,O,A,C,A,m,,,
,,,,,,,,,,,,,,,,,,2019-05-23_22h13.12.454,Probabilistic Learning,3.1.0,60,,,,,,,,1,0,6,0,1,5,hiragana1.xlsx,hiragana11.xlsx,,,,,,,,,,,,,,,,,m,0.295,2,0,92,23,1,91,a,O,B,C,,m,,
,,,,,,,,,,,,,,,,,,2019-05-23_22h13.12.454,Probabilistic Learning,3.1.0,60,,,,,,,,1,0,6,0,1,5,hiragana1.xlsx,hiragana11.xlsx,,,,,,,,,,,,,,,,,m,0.227,2,0,92,15,1,91,A,I,A,E,c,,,
,,,,,,,,,,,,,,,,,,2019-05-23_22h13.12.454,Probabilistic Learning,3.1.0,60,,,,,,,,1,0,6,0,1,5,hiragana1.xlsx,hiragana11.xlsx,,,,,,,,,,,,,,,,,m,0.157,2,0,92,43,1,91,I,d,e,d,,,,
,,,,,,,,,,,,,,,,,,2019-05-23_22h13.12.454,Probabilistic Learning,3.1.0,60,,,,,,,,1,0,6,0,1,5,hiragana1.xlsx,hiragana11.xlsx,,,,,,,,,,,,,,,,,m,0.213,2,0,92,27,1,91,a,d,B,D,,m,,
,,,,,,,,,,,,,,,,,,2019-05-23_22h13.12.454,Probabilistic Learning,3.1.0,60,,,,,,,,1,0,6,0,1,5,hiragana1.xlsx,hiragana11.xlsx,,,,,,,,,,,,,,,,,m,0.177,2,0,92,4,1,91,I,L,E,F,,,,
,,,,,,,,,,,,,,,,,,2019-05-23_22h13.12.454,Probabilistic Learning,3.1.0,60,,,,,,,,1,0,6,0,1,5,hiragana1.xlsx,hiragana11.xlsx,,,,,,,,,,,,,,,,,m,0.194,2,0,92,16,1,91,I,A,E,A,m,,,
,,,,,,,,,,,,,,,,,,2019-05-23_22h13.12.454,Probabilistic Learning,3.1.0,60,,,,,,,,1,0,6,0,1,5,hiragana1.xlsx,hiragana11.xlsx,,,,,,,,,,,,,,,,,m,0.177,2,0,92,41,1,91,L,O,f,c,,,,
,,,,,,,,,,,,,,,,,,2019-05-23_22h13.12.454,Probabilistic Learning,3.1.0,60,,,,,,,,1,0,6,0,1,5,hiragana1.xlsx,hiragana11.xlsx,,,,,,,,,,,,,,,,,m,0.111,2,0,92,42,1,91,d,I,d,e,,,,
,,,,,,,,,,,,,,,,,,2019-05-23_22h13.12.454,Probabilistic Learning,3.1.0,60,,,,,,,,1,0,6,0,1,5,hiragana1.xlsx,hiragana11.xlsx,,,,,,,,,,,,,,,,,m,0.21,2,0,92,2,1,91,O,d,C,D,,,,
,,,,,,,,,,,,,,,,,,2019-05-23_22h13.12.454,Probabilistic Learning,3.1.0,60,,,,,,,,1,0,6,0,1,5,hiragana1.xlsx,hiragana11.xlsx,,,,,,,,,,,,,,,,,m,0.057,2,0,92,20,1,91,L,A,F,A,m,,,
,,,,,,,,,,,,,,,,,,2019-05-23_22h13.12.454,Probabilistic Learning,3.1.0,60,,,,,,,,1,0,6,0,1,5,hiragana1.xlsx,hiragana11.xlsx,,,,,,,,,,,,,,,,,m,0.174,2,0,92,33,1,91,I,a,E,B,,c,,
,,,,,,,,,,,,,,,,,,2019-05-23_22h13.12.454,Probabilistic Learning,3.1.0,60,,,,,,,,1,0,6,0,1,5,hiragana1.xlsx,hiragana11.xlsx,,,,,,,,,,,,,,,,,m,0.118,2,0,92,30,1,91,a,I,B,E,,m,,
,,,,,,,,,,,,,,,,,,2019-05-23_22h13.12.454,Probabilistic Learning,3.1.0,60,,,,,,,,1,0,6,0,1,5,hiragana1.xlsx,hiragana11.xlsx,,,,,,,,,,,,,,,,,m,0.035,2,0,92,6,1,91,A,O,A,C,c,,,
,,,,,,,,,,,,,,,,,,2019-05-23_22h13.12.454,Probabilistic Learning,3.1.0,60,,,,,,,,1,0,6,0,1,5,hiragana1.xlsx,hiragana11.xlsx,,,,,,,,,,,,,,,,,m,0.332,2,0,92,17,1,91,I,A,E,A,m,,,
,,,,,,,,,,,,,,,,,,2019-05-23_22h13.12.454,Probabilistic Learning,3.1.0,60,,,,,,,,1,0,6,0,1,5,hiragana1.xlsx,hiragana11.xlsx,,,,,,,,,,,,,,,,,m,0.293,2,0,92,7,1,91,A,O,A,C,c,,,
,,,,,,,,,,,,,,,,,,2019-05-23_22h13.12.454,Probabilistic Learning,3.1.0,60,,,,,,,,1,0,6,0,1,5,hiragana1.xlsx,hiragana11.xlsx,,,,,,,,,,,,,,,,,m,0.194,2,0,92,24,1,91,O,a,C,B,,c,,
,,,,,,,,,,,,,,,,,,2019-05-23_22h13.12.454,Probabilistic Learning,3.1.0,60,,,,,,,,1,0,6,0,1,5,hiragana1.xlsx,hiragana11.xlsx,,,,,,,,,,,,,,,,,m,0.195,2,0,92,40,1,91,O,L,c,f,,,,
,,,,,,,,,,,,,,,,,,2019-05-23_22h13.12.454,Probabilistic Learning,3.1.0,60,,,,,,,,1,0,6,0,1,5,hiragana1.xlsx,hiragana11.xlsx,,,,,,,,,,,,,,,,,m,0.094,2,0,92,45,1,91,L,d,f,d,,,,
,,,,,,,,,,,,,,,,,,2019-05-23_22h13.12.454,Probabilistic Learning,3.1.0,60,,,,,,,,1,0,6,0,1,5,hiragana1.xlsx,hiragana11.xlsx,,,,,,,,,,,,,,,,,m,0.243,2,0,92,29,1,91,d,a,D,B,,c,,
,,,,,,,,,,,,,,,,,,2019-05-23_22h13.12.454,Probabilistic Learning,3.1.0,60,,,,,,,,1,0,6,0,1,5,hiragana1.xlsx,hiragana11.xlsx,,,,,,,,,,,,,,,,,m,0.08,2,0,92,30,1,91,a,I,B,E,,m,,
,,,,,,,,,,,,,,,,,,2019-05-23_22h13.12.454,Probabilistic Learning,3.1.0,60,,,,,,,,1,0,6,0,1,5,hiragana1.xlsx,hiragana11.xlsx,,,,,,,,,,,,,,,,,m,0.343,2,0,92,34,1,91,a,L,B,F,,m,,
,,,,,,,,,,,,,,,,,,2019-05-23_22h13.12.454,Probabilistic Learning,3.1.0,60,,,,,,,,1,0,6,0,1,5,hiragana1.xlsx,hiragana11.xlsx,,,,,,,,,,,,,,,,,m,0.246,2,0,92,43,1,91,I,d,e,d,,,,
,,,,,,,,,,,,,,,,,,2019-05-23_22h13.12.454,Probabilistic Learning,3.1.0,60,,,,,,,,1,0,6,0,1,5,hiragana1.xlsx,hiragana11.xlsx,,,,,,,,,,,,,,,,,m,0.226,2,0,92,38,1,91,O,I,C,E,,,,
,,,,,,,,,,,,,,,,,,2019-05-23_22h13.12.454,Probabilistic Learning,3.1.0,60,,,,,,,,1,0,6,0,1,5,hiragana1.xlsx,hiragana11.xlsx,,,,,,,,,,,,,,,,,m,0.043,2,0,92,44,1,91,d,L,d,f,,,,
,,,,,,,,,,,,,,,,,,2019-05-23_22h13.12.454,Probabilistic Learning,3.1.0,60,,,,,,,,1,0,6,0,1,5,hiragana1.xlsx,hiragana11.xlsx,,,,,,,,,,,,,,,,,m,0.23,2,0,92,19,1,91,A,L,A,F,c,,,
,,,,,,,,,,,,,,,,,,2019-05-23_22h13.12.454,Probabilistic Learning,3.1.0,60,,,,,,,,1,0,6,0,1,5,hiragana1.xlsx,hiragana11.xlsx,,,,,,,,,,,,,,,,,m,0.211,2,0,92,16,1,91,I,A,E,A,m,,,
,,,,,,,,,,,,,,,,,,2019-05-23_22h13.12.454,Probabilistic Learning,3.1.0,60,,,,,,,,1,0,6,0,1,5,hiragana1.xlsx,hiragana11.xlsx,,,,,,,,,,,,,,,,,m,0.246,2,0,92,32,1,91,I,a,E,B,,c,,
,,,,,,,,,,,,,,,,,,2019-05-23_22h13.12.454,Probabilistic Learning,3.1.0,60,,,,,,,,1,0,6,0,1,5,hiragana1.xlsx,hiragana11.xlsx,,,,,,,,,,,,,,,,,m,0.278,2,0,92,10,1,91,A,d,A,D,c,,,
,,,,,,,,,,,,,,,,,,2019-05-23_22h13.12.454,Probabilistic Learning,3.1.0,60,,,,,,,,1,0,6,0,1,5,hiragana1.xlsx,hiragana11.xlsx,,,,,,,,,,,,,,,,,m,0.243,2,0,92,18,1,91,A,L,A,F,c,,,
,,,,,,,,,,,,,,,,,,2019-05-23_22h13.12.454,Probabilistic Learning,3.1.0,60,,,,,,,,1,0,6,0,1,5,hiragana1.xlsx,hiragana11.xlsx,,,,,,,,,,,,,,,,,m,0.058,2,0,92,41,1,91,L,O,f,c,,,,
,,,,,,,,,,,,,,,,,,2019-05-23_22h13.12.454,Probabilistic Learning,3.1.0,60,,,,,,,,1,0,6,0,1,5,hiragana1.xlsx,hiragana11.xlsx,,,,,,,,,,,,,,,,,m,0.195,2,0,92,9,1,91,O,A,C,A,m,,,
,,,,,,,,,,,,,,,,,,2019-05-23_22h13.12.454,Probabilistic Learning,3.1.0,60,,,,,,,,1,0,6,0,1,5,hiragana1.xlsx,hiragana11.xlsx,,,,,,,,,,,,,,,,,m,0.227,2,0,92,28,1,91,d,a,D,B,,c,,
,,,,,,,,,,,,,,,,,,2019-05-23_22h13.12.454,Probabilistic Learning,3.1.0,60,,,,,,,,1,0,6,0,1,5,hiragana1.xlsx,hiragana11.xlsx,,,,,,,,,,,,,,,,,m,0.228,2,0,92,27,1,91,a,d,B,D,,m,,
,,,,,,,,,,,,,,,,,,2019-05-23_22h13.12.454,Probabilistic Learning,3.1.0,60,,,,,,,,1,0,6,0,1,5,hiragana1.xlsx,hiragana11.xlsx,,,,,,,,,,,,,,,,,m,0.325,2,0,92,33,1,91,I,a,E,B,,c,,
,,,,,,,,,,,,,,,,,,2019-05-23_22h13.12.454,Probabilistic Learning,3.1.0,60,,,,,,,,1,0,6,0,1,5,hiragana1.xlsx,hiragana11.xlsx,,,,,,,,,,,,,,,,,m,0.048,2,0,92,26,1,91,a,d,B,D,,m,,
,,,,,,,,,,,,,,,,,,2019-05-23_22h13.12.454,Probabilistic Learning,3.1.0,60,,,,,,,,1,0,6,0,1,5,hiragana1.xlsx,hiragana11.xlsx,,,,,,,,,,,,,,,,,m,0.226,2,0,92,12,1,91,d,A,D,A,m,,,
,,,,,,,,,,,,,,,,,,2019-05-23_22h13.12.454,Probabilistic Learning,3.1.0,60,,,,,,,,1,0,6,0,1,5,hiragana1.xlsx,hiragana11.xlsx,,,,,,,,,,,,,,,,,m,0.242,2,0,92,20,1,91,L,A,F,A,m,,,
,,,,,,,,,,,,,,,,,,2019-05-23_22h13.12.454,Probabilistic Learning,3.1.0,60,,,,,,,,1,0,6,0,1,5,hiragana1.xlsx,hiragana11.xlsx,,,,,,,,,,,,,,,,,m,0.245,2,0,92,5,1,91,L,I,F,E,,,,
,,,,,,,,,,,,,,,,,,2019-05-23_22h13.12.454,Probabilistic Learning,3.1.0,60,,,,,,,,1,0,6,0,1,5,hiragana1.xlsx,hiragana11.xlsx,,,,,,,,,,,,,,,,,m,0.194,2,0,92,29,1,91,d,a,D,B,,c,,
,,,,,,,,,,,,,,,,,,2019-05-23_22h13.12.454,Probabilistic Learning,3.1.0,60,,,,,,,,1,0,6,0,1,5,hiragana1.xlsx,hiragana11.xlsx,,,,,,,,,,,,,,,,,m,0.23,2,0,92,23,1,91,a,O,B,C,,m,,
,,,,,,,,,,,,,,,,,,2019-05-23_22h13.12.454,Probabilistic Learning,3.1.0,60,,,,,,,,1,0,6,0,1,5,hiragana1.xlsx,hiragana11.xlsx,,,,,,,,,,,,,,,,,m,0.241,2,0,92,15,1,91,A,I,A,E,c,,,
,,,,,,,,,,,,,,,,,,2019-05-23_22h13.12.454,Probabilistic Learning,3.1.0,60,,,,,,,,1,0,6,0,1,5,hiragana1.xlsx,hiragana11.xlsx,,,,,,,,,,,,,,,,,m,0.242,2,0,92,24,1,91,O,a,C,B,,c,,
,,,,,,,,,,,,,,,,,,2019-05-23_22h13.12.454,Probabilistic Learning,3.1.0,60,,,,,,,,1,0,6,0,1,5,hiragana1.xlsx,hiragana11.xlsx,,,,,,,,,,,,,,,,,m,0.246,2,0,92,1,1,91,a,A,B,A,,,,
,,,,,,,,,,,,,,,,,,2019-05-23_22h13.12.454,Probabilistic Learning,3.1.0,60,,,,,,,,1,0,6,0,1,5,hiragana1.xlsx,hiragana11.xlsx,,,,,,,,,,,,,,,,,m,0.278,2,0,92,3,1,91,d,O,D,C,,,,
,,,,,,,,,,,,,,,,,,2019-05-23_22h13.12.454,Probabilistic Learning,3.1.0,60,,,,,,,,1,0,6,0,1,5,hiragana1.xlsx,hiragana11.xlsx,,,,,,,,,,,,,,,,,m,0.229,2,0,92,37,1,91,L,a,F,B,,c,,
,,,,,,,,,,,,,,,,,,2019-05-23_22h13.12.454,Probabilistic Learning,3.1.0,60,,,,,,,,1,0,6,0,1,5,hiragana1.xlsx,hiragana11.xlsx,,,,,,,,,,,,,,,,,m,0.111,2,0,92,4,1,91,I,L,E,F,,,,
,,,,,,,,,,,,,,,,,,2019-05-23_22h13.12.454,Probabilistic Learning,3.1.0,60,,,,,,,,1,0,6,0,1,5,hiragana1.xlsx,hiragana11.xlsx,,,,,,,,,,,,,,,,,m,0.194,2,0,92,25,1,91,O,a,C,B,,c,,
,,,,,,,,,,,,,,,,,,2019-05-23_22h13.12.454,Probabilistic Learning,3.1.0,60,,,,,,,,1,0,6,0,1,5,hiragana1.xlsx,hiragana11.xlsx,,,,,,,,,,,,,,,,,m,0.246,2,0,92,0,1,91,A,a,A,B,,,,
,,,,,,,,,,,,,,,,,,2019-05-23_22h13.12.454,Probabilistic Learning,3.1.0,60,,,,,,,,1,0,6,0,1,5,hiragana1.xlsx,hiragana11.xlsx,,,,,,,,,,,,,,,,,m,0.161,2,0,92,7,1,91,A,O,A,C,c,,,
,,,,,,,,,,,,,,,,,,2019-05-23_22h13.12.454,Probabilistic Learning,3.1.0,60,,,,,,,,1,0,6,0,1,5,hiragana1.xlsx,hiragana11.xlsx,,,,,,,,,,,,,,,,,m,0.094,2,0,92,35,1,91,a,L,B,F,,m,,
,,,,,,,,,,,,,,,,,,2019-05-23_22h13.12.454,Probabilistic Learning,3.1.0,60,,,,,,,,1,0,6,0,1,5,hiragana1.xlsx,hiragana11.xlsx,,,,,,,,,,,,,,,,,m,0.144,2,0,92,11,1,91,A,d,A,D,c,,,
,,,,,,,,,,,,,,,,,,2019-05-23_22h13.12.454,Probabilistic Learning,3.1.0,60,,,,,,,,1,0,6,0,1,5,hiragana1.xlsx,hiragana11.xlsx,,,,,,,,,,,,,,,,,m,0.194,2,0,92,13,1,91,d,A,D,A,m,,,
,,,,,,,,,,,,,,,,,,2019-05-23_22h13.12.454,Probabilistic Learning,3.1.0,60,,,,,,,,1,0,6,0,1,5,hiragana1.xlsx,hiragana11.xlsx,,,,,,,,,,,,,,,,,m,0.243,2,0,92,36,1,91,L,a,F,B,,c,,
,,,,,,,,,,,,,,,,,,2019-05-23_22h13.12.454,Probabilistic Learning,3.1.0,60,,,,,,,,1,0,6,0,1,5,hiragana1.xlsx,hiragana11.xlsx,,,,,,,,,,,,,,,,,m,0.077,2,0,92,2,1,91,O,d,C,D,,,,
,,,,,,,,,,,,,,,,,,2019-05-23_22h13.12.454,Probabilistic Learning,3.1.0,60,,,,,,,,1,0,6,0,1,5,hiragana1.xlsx,hiragana11.xlsx,,,,,,,,,,,,,,,,,m,0.212,2,0,92,14,1,91,A,I,A,E,c,,,
,,,,,,,,,,,,,,,,,,2019-05-23_22h13.12.454,Probabilistic Learning,3.1.0,60,,,,,,,,1,0,6,0,1,5,hiragana1.xlsx,hiragana11.xlsx,,,,,,,,,,,,,,,,,m,0.311,2,0,92,21,1,91,L,A,F,A,m,,,
,,,,,,,,,,,,,,,,,,2019-05-23_22h13.12.454,Probabilistic Learning,3.1.0,60,,,,,,,,1,0,6,0,1,5,hiragana1.xlsx,hiragana11.xlsx,,,,,,,,,,,,,,,,,m,0.227,2,0,92,45,1,91,L,d,f,d,,,,
,,,,,,,,,,,,,,,,,,2019-05-23_22h13.12.454,Probabilistic Learning,3.1.0,60,,,,,,,,1,0,6,0,1,5,hiragana1.xlsx,hiragana11.xlsx,,,,,,,,,,,,,,,,,m,0.059,2,0,92,39,1,91,I,O,e,c,,,,
,,,,,,,,,,,,,,,,,,2019-05-23_22h13.12.454,Probabilistic Learning,3.1.0,60,,,,,,,,1,0,6,0,1,5,hiragana1.xlsx,hiragana11.xlsx,,,,,,,,,,,,,,,,,m,0.178,2,0,92,42,1,91,d,I,d,e,,,,
,,,,,,,,,,,,,,,,,,2019-05-23_22h13.12.454,Probabilistic Learning,3.1.0,60,,,,,,,,1,0,6,0,1,5,hiragana1.xlsx,hiragana11.xlsx,,,,,,,,,,,,,,,,,m,0.261,2,0,92,40,1,91,O,L,c,f,,,,
,,,,,,,,,,,,,,,,,,2019-05-23_22h13.12.454,Probabilistic Learning,3.1.0,60,,,,,,,,1,0,6,0,1,5,hiragana1.xlsx,hiragana11.xlsx,,,,,,,,,,,,,,,,,m,0.246,2,0,92,22,1,91,a,O,B,C,,m,,
,,,,,,,,,,,,,,,,,,2019-05-23_22h13.12.454,Probabilistic Learning,3.1.0,60,,,,,,,,1,0,6,0,1,5,hiragana1.xlsx,hiragana11.xlsx,,,,,,,,,,,,,,,,,m,0.129,2,0,92,8,1,91,O,A,C,A,m,,,
,,,,,,,,,,,,,,,,,,2019-05-23_22h13.12.454,Probabilistic Learning,3.1.0,60,,,,,,,,1,0,6,0,1,5,hiragana1.xlsx,hiragana11.xlsx,,,,,,,,,,,,,,,,,m,0.13,2,0,92,6,1,91,A,O,A,C,c,,,
,,,,,,,,,,,,,,,,,,2019-05-23_22h13.12.454,Probabilistic Learning,3.1.0,60,,,,,,,,1,0,6,0,1,5,hiragana1.xlsx,hiragana11.xlsx,,,,,,,,,,,,,,,,,m,0.145,2,0,92,31,1,91,a,I,B,E,,m,,
,,,,,,,,,,,,,,,,,,2019-05-23_22h13.12.454,Probabilistic Learning,3.1.0,60,,,,,,,,1,0,6,0,1,5,hiragana1.xlsx,hiragana11.xlsx,,,,,,,,,,,,,,,,,m,0.127,2,0,92,17,1,91,I,A,E,A,m,,,
,,,,,,,,,,,,,,,,,,2019-05-23_22h13.12.454,Probabilistic Learning,3.1.0,60,,,,,,,,1,0,6,0,1,5,hiragana1.xlsx,hiragana11.xlsx,,,,,,,,,,,,,,,,,,,,,,,,,,,,,,,space,1.624
,,,,,,,,,,,,,,,,,,2019-05-23_22h13.12.454,Probabilistic Learning,3.1.0,60,,,space,0.96,m,0,0.309,1,0,6,3,1,5,hiragana4.xlsx,hiragana41.xlsx,6,0,180,17,1,179,i,c,c,,m,,,,,,,,,,,,,,,,,,,,,
,,,,,,,,,,,,,,,,,,2019-05-23_22h13.12.454,Probabilistic Learning,3.1.0,60,,,,,c,1,0.323,1,0,6,3,1,5,hiragana4.xlsx,hiragana41.xlsx,6,0,180,2,1,179,k,R,c,c,,,,,,,,,,,,,,,,,,,,,,
,,,,,,,,,,,,,,,,,,2019-05-23_22h13.12.454,Probabilistic Learning,3.1.0,60,,,,,m,0,0.412,1,0,6,3,1,5,hiragana4.xlsx,hiragana41.xlsx,6,0,180,11,1,179,c,i,c,,c,,,,,,,,,,,,,,,,,,,,,
,,,,,,,,,,,,,,,,,,2019-05-23_22h13.12.454,Probabilistic Learning,3.1.0,60,,,,,m,1,0.396,1,0,6,3,1,5,hiragana4.xlsx,hiragana41.xlsx,6,0,180,14,1,179,i,c,m,,m,,,,,,,,,,,,,,,,,,,,,
,,,,,,,,,,,,,,,,,,2019-05-23_22h13.12.454,Probabilistic Learning,3.1.0,60,,,,,c,1,0.275,1,0,6,3,1,5,hiragana4.xlsx,hiragana41.xlsx,6,0,180,28,1,179,n,M,c,,,m,,,,,,,,,,,,,,,,,,,,
,,,,,,,,,,,,,,,,,,2019-05-23_22h13.12.454,Probabilistic Learning,3.1.0,60,,,,,m,1,0.446,1,0,6,3,1,5,hiragana4.xlsx,hiragana41.xlsx,6,0,180,7,1,179,R,k,m,m,,,,,,,,,,,,,,,,,,,,,,
,,,,,,,,,,,,,,,,,,2019-05-23_22h13.12.454,Probabilistic Learning,3.1.0,60,,,,,c,1,0.362,1,0,6,3,1,5,hiragana4.xlsx,hiragana41.xlsx,6,0,180,1,1,179,k,R,c,c,,,,,,,,,,,,,,,,,,,,,,
,,,,,,,,,,,,,,,,,,2019-05-23_22h13.12.454,Probabilistic Learning,3.1.0,60,,,,,m,1,0.527,1,0,6,3,1,5,hiragana4.xlsx,hiragana41.xlsx,6,0,180,15,1,179,i,c,m,,m,,,,,,,,,,,,,,,,,,,,,
,,,,,,,,,,,,,,,,,,2019-05-23_22h13.12.454,Probabilistic Learning,3.1.0,60,,,,,c,1,0.376,1,0,6,3,1,5,hiragana4.xlsx,hiragana41.xlsx,6,0,180,10,1,179,c,i,c,,c,,,,,,,,,,,,,,,,,,,,,
,,,,,,,,,,,,,,,,,,2019-05-23_22h13.12.454,Probabilistic Learning,3.1.0,60,,,,,m,0,0.358,1,0,6,3,1,5,hiragana4.xlsx,hiragana41.xlsx,6,0,180,18,1,179,i,c,c,,m,,,,,,,,,,,,,,,,,,,,,
,,,,,,,,,,,,,,,,,,2019-05-23_22h13.12.454,Probabilistic Learning,3.1.0,60,,,,,m,0,0.777,1,0,6,3,1,5,hiragana4.xlsx,hiragana41.xlsx,6,0,180,29,1,179,n,M,c,,,m,,,,,,,,,,,,,,,,,,,,
,,,,,,,,,,,,,,,,,,2019-05-23_22h13.12.454,Probabilistic Learning,3.1.0,60,,,,,c,1,0.361,1,0,6,3,1,5,hiragana4.xlsx,hiragana41.xlsx,6,0,180,0,1,179,k,R,c,c,,,,,,,,,,,,,,,,,,,,,,
,,,,,,,,,,,,,,,,,,2019-05-23_22h13.12.454,Probabilistic Learning,3.1.0,60,,,,,c,0,0.362,1,0,6,3,1,5,hiragana4.xlsx,hiragana41.xlsx,6,0,180,16,1,179,i,c,m,,m,,,,,,,,,,,,,,,,,,,,,
,,,,,,,,,,,,,,,,,,2019-05-23_22h13.12.454,Probabilistic Learning,3.1.0,60,,,,,c,0,0.646,1,0,6,3,1,5,hiragana4.xlsx,hiragana41.xlsx,6,0,180,26,1,179,M,n,m,,,c,,,,,,,,,,,,,,,,,,,,
,,,,,,,,,,,,,,,,,,2019-05-23_22h13.12.454,Probabilistic Learning,3.1.0,60,,,,,m,1,0.446,1,0,6,3,1,5,hiragana4.xlsx,hiragana41.xlsx,6,0,180,23,1,179,n,M,m,,,m,,,,,,,,,,,,,,,,,,,,
,,,,,,,,,,,,,,,,,,2019-05-23_22h13.12.454,Probabilistic Learning,3.1.0,60,,,,,c,1,0.36,1,0,6,3,1,5,hiragana4.xlsx,hiragana41.xlsx,6,0,180,22,1,179,M,n,c,,,c,,,,,,,,,,,,,,,,,,,,
,,,,,,,,,,,,,,,,,,2019-05-23_22h13.12.454,Probabilistic Learning,3.1.0,60,,,,,m,1,0.36,1,0,6,3,1,5,hiragana4.xlsx,hiragana41.xlsx,6,0,180,25,1,179,n,M,m,,,m,,,,,,,,,,,,,,,,,,,,
,,,,,,,,,,,,,,,,,,2019-05-23_22h13.12.454,Probabilistic Learning,3.1.0,60,,,,,m,1,0.411,1,0,6,3,1,5,hiragana4.xlsx,hiragana41.xlsx,6,0,180,4,1,179,R,k,m,m,,,,,,,,,,,,,,,,,,,,,,
,,,,,,,,,,,,,,,,,,2019-05-23_22h13.12.454,Probabilistic Learning,3.1.0,60,,,,,c,1,0.612,1,0,6,3,1,5,hiragana4.xlsx,hiragana41.xlsx,6,0,180,12,1,179,c,i,c,,c,,,,,,,,,,,,,,,,,,,,,
,,,,,,,,,,,,,,,,,,2019-05-23_22h13.12.454,Probabilistic Learning,3.1.0,60,,,,,c,0,0.445,1,0,6,3,1,5,hiragana4.xlsx,hiragana41.xlsx,6,0,180,8,1,179,k,R,m,c,,,,,,,,,,,,,,,,,,,,,,
,,,,,,,,,,,,,,,,,,2019-05-23_22h13.12.454,Probabilistic Learning,3.1.0,60,,,,,m,1,0.378,1,0,6,3,1,5,hiragana4.xlsx,hiragana41.xlsx,6,0,180,6,1,179,R,k,m,m,,,,,,,,,,,,,,,,,,,,,,
,,,,,,,,,,,,,,,,,,2019-05-23_22h13.12.454,Probabilistic Learning,3.1.0,60,,,,,c,1,0.496,1,0,6,3,1,5,hiragana4.xlsx,hiragana41.xlsx,6,0,180,21,1,179,M,n,c,,,c,,,,,,,,,,,,,,,,,,,,
,,,,,,,,,,,,,,,,,,2019-05-23_22h13.12.454,Probabilistic Learning,3.1.0,60,,,,,m,1,0.376,1,0,6,3,1,5,hiragana4.xlsx,hiragana41.xlsx,6,0,180,24,1,179,n,M,m,,,m,,,,,,,,,,,,,,,,,,,,
,,,,,,,,,,,,,,,,,,2019-05-23_22h13.12.454,Probabilistic Learning,3.1.0,60,,,,,m,0,0.445,1,0,6,3,1,5,hiragana4.xlsx,hiragana41.xlsx,6,0,180,9,1,179,R,k,c,m,,,,,,,,,,,,,,,,,,,,,,
,,,,,,,,,,,,,,,,,,2019-05-23_22h13.12.454,Probabilistic Learning,3.1.0,60,,,,,c,0,0.395,1,0,6,3,1,5,hiragana4.xlsx,hiragana41.xlsx,6,0,180,27,1,179,M,n,m,,,c,,,,,,,,,,,,,,,,,,,,
,,,,,,,,,,,,,,,,,,2019-05-23_22h13.12.454,Probabilistic Learning,3.1.0,60,,,,,c,1,0.491,1,0,6,3,1,5,hiragana4.xlsx,hiragana41.xlsx,6,0,180,13,1,179,c,i,c,,c,,,,,,,,,,,,,,,,,,,,,
,,,,,,,,,,,,,,,,,,2019-05-23_22h13.12.454,Probabilistic Learning,3.1.0,60,,,,,c,1,0.46,1,0,6,3,1,5,hiragana4.xlsx,hiragana41.xlsx,6,0,180,3,1,179,k,R,c,c,,,,,,,,,,,,,,,,,,,,,,
,,,,,,,,,,,,,,,,,,2019-05-23_22h13.12.454,Probabilistic Learning,3.1.0,60,,,,,c,1,0.413,1,0,6,3,1,5,hiragana4.xlsx,hiragana41.xlsx,6,0,180,20,1,179,M,n,c,,,c,,,,,,,,,,,,,,,,,,,,
,,,,,,,,,,,,,,,,,,2019-05-23_22h13.12.454,Probabilistic Learning,3.1.0,60,,,,,c,0,0.429,1,0,6,3,1,5,hiragana4.xlsx,hiragana41.xlsx,6,0,180,19,1,179,c,i,m,,c,,,,,,,,,,,,,,,,,,,,,
,,,,,,,,,,,,,,,,,,2019-05-23_22h13.12.454,Probabilistic Learning,3.1.0,60,,,,,c,0,0.357,1,0,6,3,1,5,hiragana4.xlsx,hiragana41.xlsx,6,0,180,5,1,179,R,k,m,m,,,,,,,,,,,,,,,,,,,,,,
,,,,,,,,,,,,,,,,,,2019-05-23_22h13.12.454,Probabilistic Learning,3.1.0,60,,,,,c,0,0.409,1,0,6,3,1,5,hiragana4.xlsx,hiragana41.xlsx,6,0,180,16,1,179,i,c,m,,m,,,,,,,,,,,,,,,,,,,,,
,,,,,,,,,,,,,,,,,,2019-05-23_22h13.12.454,Probabilistic Learning,3.1.0,60,,,,,m,1,0.661,1,0,6,3,1,5,hiragana4.xlsx,hiragana41.xlsx,6,0,180,5,1,179,R,k,m,m,,,,,,,,,,,,,,,,,,,,,,
,,,,,,,,,,,,,,,,,,2019-05-23_22h13.12.454,Probabilistic Learning,3.1.0,60,,,,,c,1,0.492,1,0,6,3,1,5,hiragana4.xlsx,hiragana41.xlsx,6,0,180,10,1,179,c,i,c,,c,,,,,,,,,,,,,,,,,,,,,
,,,,,,,,,,,,,,,,,,2019-05-23_22h13.12.454,Probabilistic Learning,3.1.0,60,,,,,c,0,0.461,1,0,6,3,1,5,hiragana4.xlsx,hiragana41.xlsx,6,0,180,8,1,179,k,R,m,c,,,,,,,,,,,,,,,,,,,,,,
,,,,,,,,,,,,,,,,,,2019-05-23_22h13.12.454,Probabilistic Learning,3.1.0,60,,,,,c,1,0.428,1,0,6,3,1,5,hiragana4.xlsx,hiragana41.xlsx,6,0,180,22,1,179,M,n,c,,,c,,,,,,,,,,,,,,,,,,,,
,,,,,,,,,,,,,,,,,,2019-05-23_22h13.12.454,Probabilistic Learning,3.1.0,60,,,,,c,0,0.477,1,0,6,3,1,5,hiragana4.xlsx,hiragana41.xlsx,6,0,180,19,1,179,c,i,m,,c,,,,,,,,,,,,,,,,,,,,,
,,,,,,,,,,,,,,,,,,2019-05-23_22h13.12.454,Probabilistic Learning,3.1.0,60,,,,,c,1,0.359,1,0,6,3,1,5,hiragana4.xlsx,hiragana41.xlsx,6,0,180,12,1,179,c,i,c,,c,,,,,,,,,,,,,,,,,,,,,
,,,,,,,,,,,,,,,,,,2019-05-23_22h13.12.454,Probabilistic Learning,3.1.0,60,,,,,m,1,0.394,1,0,6,3,1,5,hiragana4.xlsx,hiragana41.xlsx,6,0,180,14,1,179,i,c,m,,m,,,,,,,,,,,,,,,,,,,,,
,,,,,,,,,,,,,,,,,,2019-05-23_22h13.12.454,Probabilistic Learning,3.1.0,60,,,,,c,0,0.427,1,0,6,3,1,5,hiragana4.xlsx,hiragana41.xlsx,6,0,180,27,1,179,M,n,m,,,c,,,,,,,,,,,,,,,,,,,,
,,,,,,,,,,,,,,,,,,2019-05-23_22h13.12.454,Probabilistic Learning,3.1.0,60,,,,,c,1,0.394,1,0,6,3,1,5,hiragana4.xlsx,hiragana41.xlsx,6,0,180,0,1,179,k,R,c,c,,,,,,,,,,,,,,,,,,,,,,
,,,,,,,,,,,,,,,,,,2019-05-23_22h13.12.454,Probabilistic Learning,3.1.0,60,,,,,m,1,0.593,1,0,6,3,1,5,hiragana4.xlsx,hiragana41.xlsx,6,0,180,15,1,179,i,c,m,,m,,,,,,,,,,,,,,,,,,,,,
,,,,,,,,,,,,,,,,,,2019-05-23_22h13.12.454,Probabilistic Learning,3.1.0,60,,,,,c,1,0.411,1,0,6,3,1,5,hiragana4.xlsx,hiragana41.xlsx,6,0,180,3,1,179,k,R,c,c,,,,,,,,,,,,,,,,,,,,,,
,,,,,,,,,,,,,,,,,,2019-05-23_22h13.12.454,Probabilistic Learning,3.1.0,60,,,,,m,1,0.578,1,0,6,3,1,5,hiragana4.xlsx,hiragana41.xlsx,6,0,180,7,1,179,R,k,m,m,,,,,,,,,,,,,,,,,,,,,,
,,,,,,,,,,,,,,,,,,2019-05-23_22h13.12.454,Probabilistic Learning,3.1.0,60,,,,,c,1,0.36,1,0,6,3,1,5,hiragana4.xlsx,hiragana41.xlsx,6,0,180,2,1,179,k,R,c,c,,,,,,,,,,,,,,,,,,,,,,
,,,,,,,,,,,,,,,,,,2019-05-23_22h13.12.454,Probabilistic Learning,3.1.0,60,,,,,m,1,0.393,1,0,6,3,1,5,hiragana4.xlsx,hiragana41.xlsx,6,0,180,4,1,179,R,k,m,m,,,,,,,,,,,,,,,,,,,,,,
,,,,,,,,,,,,,,,,,,2019-05-23_22h13.12.454,Probabilistic Learning,3.1.0,60,,,,,c,1,0.357,1,0,6,3,1,5,hiragana4.xlsx,hiragana41.xlsx,6,0,180,21,1,179,M,n,c,,,c,,,,,,,,,,,,,,,,,,,,
,,,,,,,,,,,,,,,,,,2019-05-23_22h13.12.454,Probabilistic Learning,3.1.0,60,,,,,c,1,0.445,1,0,6,3,1,5,hiragana4.xlsx,hiragana41.xlsx,6,0,180,20,1,179,M,n,c,,,c,,,,,,,,,,,,,,,,,,,,
,,,,,,,,,,,,,,,,,,2019-05-23_22h13.12.454,Probabilistic Learning,3.1.0,60,,,,,m,0,0.459,1,0,6,3,1,5,hiragana4.xlsx,hiragana41.xlsx,6,0,180,29,1,179,n,M,c,,,m,,,,,,,,,,,,,,,,,,,,
,,,,,,,,,,,,,,,,,,2019-05-23_22h13.12.454,Probabilistic Learning,3.1.0,60,,,,,c,0,0.393,1,0,6,3,1,5,hiragana4.xlsx,hiragana41.xlsx,6,0,180,26,1,179,M,n,m,,,c,,,,,,,,,,,,,,,,,,,,
,,,,,,,,,,,,,,,,,,2019-05-23_22h13.12.454,Probabilistic Learning,3.1.0,60,,,,,m,1,0.409,1,0,6,3,1,5,hiragana4.xlsx,hiragana41.xlsx,6,0,180,24,1,179,n,M,m,,,m,,,,,,,,,,,,,,,,,,,,
,,,,,,,,,,,,,,,,,,2019-05-23_22h13.12.454,Probabilistic Learning,3.1.0,60,,,,,m,0,0.478,1,0,6,3,1,5,hiragana4.xlsx,hiragana41.xlsx,6,0,180,17,1,179,i,c,c,,m,,,,,,,,,,,,,,,,,,,,,
,,,,,,,,,,,,,,,,,,2019-05-23_22h13.12.454,Probabilistic Learning,3.1.0,60,,,,,c,1,0.344,1,0,6,3,1,5,hiragana4.xlsx,hiragana41.xlsx,6,0,180,1,1,179,k,R,c,c,,,,,,,,,,,,,,,,,,,,,,
,,,,,,,,,,,,,,,,,,2019-05-23_22h13.12.454,Probabilistic Learning,3.1.0,60,,,,,c,1,0.41,1,0,6,3,1,5,hiragana4.xlsx,hiragana41.xlsx,6,0,180,11,1,179,c,i,c,,c,,,,,,,,,,,,,,,,,,,,,
,,,,,,,,,,,,,,,,,,2019-05-23_22h13.12.454,Probabilistic Learning,3.1.0,60,,,,,m,1,0.527,1,0,6,3,1,5,hiragana4.xlsx,hiragana41.xlsx,6,0,180,23,1,179,n,M,m,,,m,,,,,,,,,,,,,,,,,,,,
,,,,,,,,,,,,,,,,,,2019-05-23_22h13.12.454,Probabilistic Learning,3.1.0,60,,,,,m,1,0.458,1,0,6,3,1,5,hiragana4.xlsx,hiragana41.xlsx,6,0,180,25,1,179,n,M,m,,,m,,,,,,,,,,,,,,,,,,,,
,,,,,,,,,,,,,,,,,,2019-05-23_22h13.12.454,Probabilistic Learning,3.1.0,60,,,,,m,0,0.546,1,0,6,3,1,5,hiragana4.xlsx,hiragana41.xlsx,6,0,180,28,1,179,n,M,c,,,m,,,,,,,,,,,,,,,,,,,,
,,,,,,,,,,,,,,,,,,2019-05-23_22h13.12.454,Probabilistic Learning,3.1.0,60,,,,,m,0,0.493,1,0,6,3,1,5,hiragana4.xlsx,hiragana41.xlsx,6,0,180,18,1,179,i,c,c,,m,,,,,,,,,,,,,,,,,,,,,
,,,,,,,,,,,,,,,,,,2019-05-23_22h13.12.454,Probabilistic Learning,3.1.0,60,,,,,m,1,0.447,1,0,6,3,1,5,hiragana4.xlsx,hiragana41.xlsx,6,0,180,6,1,179,R,k,m,m,,,,,,,,,,,,,,,,,,,,,,
,,,,,,,,,,,,,,,,,,2019-05-23_22h13.12.454,Probabilistic Learning,3.1.0,60,,,,,m,0,0.458,1,0,6,3,1,5,hiragana4.xlsx,hiragana41.xlsx,6,0,180,13,1,179,c,i,c,,c,,,,,,,,,,,,,,,,,,,,,
,,,,,,,,,,,,,,,,,,2019-05-23_22h13.12.454,Probabilistic Learning,3.1.0,60,,,,,m,0,0.443,1,0,6,3,1,5,hiragana4.xlsx,hiragana41.xlsx,,,,,,,,,,,,,space,0.781,space,0.577,m,0.227,2,0,92,21,1,91,n,k,F,A,m,,,
,,,,,,,,,,,,,,,,,,2019-05-23_22h13.12.454,Probabilistic Learning,3.1.0,60,,,,,,,,1,0,6,3,1,5,hiragana4.xlsx,hiragana41.xlsx,,,,,,,,,,,,,,,,,m,0.178,2,0,92,20,1,91,n,k,F,A,m,,,
,,,,,,,,,,,,,,,,,,2019-05-23_22h13.12.454,Probabilistic Learning,3.1.0,60,,,,,,,,1,0,6,3,1,5,hiragana4.xlsx,hiragana41.xlsx,,,,,,,,,,,,,,,,,m,0.161,2,0,92,9,1,91,c,k,C,A,m,,,
,,,,,,,,,,,,,,,,,,2019-05-23_22h13.12.454,Probabilistic Learning,3.1.0,60,,,,,,,,1,0,6,3,1,5,hiragana4.xlsx,hiragana41.xlsx,,,,,,,,,,,,,,,,,m,0.31,2,0,92,13,1,91,i,k,D,A,m,,,
,,,,,,,,,,,,,,,,,,2019-05-23_22h13.12.454,Probabilistic Learning,3.1.0,60,,,,,,,,1,0,6,3,1,5,hiragana4.xlsx,hiragana41.xlsx,,,,,,,,,,,,,,,,,m,0.142,2,0,92,0,1,91,k,R,A,B,,,,
,,,,,,,,,,,,,,,,,,2019-05-23_22h13.12.454,Probabilistic Learning,3.1.0,60,,,,,,,,1,0,6,3,1,5,hiragana4.xlsx,hiragana41.xlsx,,,,,,,,,,,,,,,,,m,0.061,2,0,92,36,1,91,n,R,F,B,,c,,
,,,,,,,,,,,,,,,,,,2019-05-23_22h13.12.454,Probabilistic Learning,3.1.0,60,,,,,,,,1,0,6,3,1,5,hiragana4.xlsx,hiragana41.xlsx,,,,,,,,,,,,,,,,,m,0.257,2,0,92,23,1,91,R,c,B,C,,m,,
,,,,,,,,,,,,,,,,,,2019-05-23_22h13.12.454,Probabilistic Learning,3.1.0,60,,,,,,,,1,0,6,3,1,5,hiragana4.xlsx,hiragana41.xlsx,,,,,,,,,,,,,,,,,m,0.194,2,0,92,5,1,91,n,M,F,E,,,,
,,,,,,,,,,,,,,,,,,2019-05-23_22h13.12.454,Probabilistic Learning,3.1.0,60,,,,,,,,1,0,6,3,1,5,hiragana4.xlsx,hiragana41.xlsx,,,,,,,,,,,,,,,,,m,0.229,2,0,92,42,1,91,i,M,d,e,,,,
,,,,,,,,,,,,,,,,,,2019-05-23_22h13.12.454,Probabilistic Learning,3.1.0,60,,,,,,,,1,0,6,3,1,5,hiragana4.xlsx,hiragana41.xlsx,,,,,,,,,,,,,,,,,m,0.026,2,0,92,27,1,91,R,i,B,D,,m,,
,,,,,,,,,,,,,,,,,,2019-05-23_22h13.12.454,Probabilistic Learning,3.1.0,60,,,,,,,,1,0,6,3,1,5,hiragana4.xlsx,hiragana41.xlsx,,,,,,,,,,,,,,,,,m,0.029,2,0,92,1,1,91,R,k,B,A,,,,
,,,,,,,,,,,,,,,,,,2019-05-23_22h13.12.454,Probabilistic Learning,3.1.0,60,,,,,,,,1,0,6,3,1,5,hiragana4.xlsx,hiragana41.xlsx,,,,,,,,,,,,,,,,,m,0.026,2,0,92,2,1,91,c,i,C,D,,,,
,,,,,,,,,,,,,,,,,,2019-05-23_22h13.12.454,Probabilistic Learning,3.1.0,60,,,,,,,,1,0,6,3,1,5,hiragana4.xlsx,hiragana41.xlsx,,,,,,,,,,,,,,,,,m,0.192,2,0,92,8,1,91,c,k,C,A,m,,,
,,,,,,,,,,,,,,,,,,2019-05-23_22h13.12.454,Probabilistic Learning,3.1.0,60,,,,,,,,1,0,6,3,1,5,hiragana4.xlsx,hiragana41.xlsx,,,,,,,,,,,,,,,,,m,0.163,2,0,92,11,1,91,k,i,A,D,c,,,
,,,,,,,,,,,,,,,,,,2019-05-23_22h13.12.454,Probabilistic Learning,3.1.0,60,,,,,,,,1,0,6,3,1,5,hiragana4.xlsx,hiragana41.xlsx,,,,,,,,,,,,,,,,,m,0.012,2,0,92,28,1,91,i,R,D,B,,c,,
,,,,,,,,,,,,,,,,,,2019-05-23_22h13.12.454,Probabilistic Learning,3.1.0,60,,,,,,,,1,0,6,3,1,5,hiragana4.xlsx,hiragana41.xlsx,,,,,,,,,,,,,,,,,m,0.23,2,0,92,19,1,91,k,n,A,F,c,,,
,,,,,,,,,,,,,,,,,,2019-05-23_22h13.12.454,Probabilistic Learning,3.1.0,60,,,,,,,,1,0,6,3,1,5,hiragana4.xlsx,hiragana41.xlsx,,,,,,,,,,,,,,,,,m,0.211,2,0,92,44,1,91,i,n,d,f,,,,
,,,,,,,,,,,,,,,,,,2019-05-23_22h13.12.454,Probabilistic Learning,3.1.0,60,,,,,,,,1,0,6,3,1,5,hiragana4.xlsx,hiragana41.xlsx,,,,,,,,,,,,,,,,,m,0.294,2,0,92,15,1,91,k,M,A,E,c,,,
,,,,,,,,,,,,,,,,,,2019-05-23_22h13.12.454,Probabilistic Learning,3.1.0,60,,,,,,,,1,0,6,3,1,5,hiragana4.xlsx,hiragana41.xlsx,,,,,,,,,,,,,,,,,m,0.341,2,0,92,30,1,91,R,M,B,E,,m,,
,,,,,,,,,,,,,,,,,,2019-05-23_22h13.12.454,Probabilistic Learning,3.1.0,60,,,,,,,,1,0,6,3,1,5,hiragana4.xlsx,hiragana41.xlsx,,,,,,,,,,,,,,,,,m,0.145,2,0,92,7,1,91,k,c,A,C,c,,,
,,,,,,,,,,,,,,,,,,2019-05-23_22h13.12.454,Probabilistic Learning,3.1.0,60,,,,,,,,1,0,6,3,1,5,hiragana4.xlsx,hiragana41.xlsx,,,,,,,,,,,,,,,,,m,0.241,2,0,92,33,1,91,M,R,E,B,,c,,
,,,,,,,,,,,,,,,,,,2019-05-23_22h13.12.454,Probabilistic Learning,3.1.0,60,,,,,,,,1,0,6,3,1,5,hiragana4.xlsx,hiragana41.xlsx,,,,,,,,,,,,,,,,,m,0.21,2,0,92,34,1,91,R,n,B,F,,m,,
,,,,,,,,,,,,,,,,,,2019-05-23_22h13.12.454,Probabilistic Learning,3.1.0,60,,,,,,,,1,0,6,3,1,5,hiragana4.xlsx,hiragana41.xlsx,,,,,,,,,,,,,,,,,m,0.163,2,0,92,22,1,91,R,c,B,C,,m,,
,,,,,,,,,,,,,,,,,,2019-05-23_22h13.12.454,Probabilistic Learning,3.1.0,60,,,,,,,,1,0,6,3,1,5,hiragana4.xlsx,hiragana41.xlsx,,,,,,,,,,,,,,,,,m,0.01,2,0,92,3,1,91,i,c,D,C,,,,
,,,,,,,,,,,,,,,,,,2019-05-23_22h13.12.454,Probabilistic Learning,3.1.0,60,,,,,,,,1,0,6,3,1,5,hiragana4.xlsx,hiragana41.xlsx,,,,,,,,,,,,,,,,,m,0.129,2,0,92,26,1,91,R,i,B,D,,m,,
,,,,,,,,,,,,,,,,,,2019-05-23_22h13.12.454,Probabilistic Learning,3.1.0,60,,,,,,,,1,0,6,3,1,5,hiragana4.xlsx,hiragana41.xlsx,,,,,,,,,,,,,,,,,m,0.243,2,0,92,40,1,91,c,n,c,f,,,,
,,,,,,,,,,,,,,,,,,2019-05-23_22h13.12.454,Probabilistic Learning,3.1.0,60,,,,,,,,1,0,6,3,1,5,hiragana4.xlsx,hiragana41.xlsx,,,,,,,,,,,,,,,,,m,0.212,2,0,92,16,1,91,M,k,E,A,m,,,
,,,,,,,,,,,,,,,,,,2019-05-23_22h13.12.454,Probabilistic Learning,3.1.0,60,,,,,,,,1,0,6,3,1,5,hiragana4.xlsx,hiragana41.xlsx,,,,,,,,,,,,,,,,,m,0.18,2,0,92,18,1,91,k,n,A,F,c,,,
,,,,,,,,,,,,,,,,,,2019-05-23_22h13.12.454,Probabilistic Learning,3.1.0,60,,,,,,,,1,0,6,3,1,5,hiragana4.xlsx,hiragana41.xlsx,,,,,,,,,,,,,,,,,m,0.197,2,0,92,24,1,91,c,R,C,B,,c,,
,,,,,,,,,,,,,,,,,,2019-05-23_22h13.12.454,Probabilistic Learning,3.1.0,60,,,,,,,,1,0,6,3,1,5,hiragana4.xlsx,hiragana41.xlsx,,,,,,,,,,,,,,,,,m,0.062,2,0,92,38,1,91,c,M,C,E,,,,
,,,,,,,,,,,,,,,,,,2019-05-23_22h13.12.454,Probabilistic Learning,3.1.0,60,,,,,,,,1,0,6,3,1,5,hiragana4.xlsx,hiragana41.xlsx,,,,,,,,,,,,,,,,,m,0.029,2,0,92,37,1,91,n,R,F,B,,c,,
,,,,,,,,,,,,,,,,,,2019-05-23_22h13.12.454,Probabilistic Learning,3.1.0,60,,,,,,,,1,0,6,3,1,5,hiragana4.xlsx,hiragana41.xlsx,,,,,,,,,,,,,,,,,m,0.24,2,0,92,39,1,91,M,c,e,c,,,,
,,,,,,,,,,,,,,,,,,2019-05-23_22h13.12.454,Probabilistic Learning,3.1.0,60,,,,,,,,1,0,6,3,1,5,hiragana4.xlsx,hiragana41.xlsx,,,,,,,,,,,,,,,,,m,0.027,2,0,92,6,1,91,k,c,A,C,c,,,
,,,,,,,,,,,,,,,,,,2019-05-23_22h13.12.454,Probabilistic Learning,3.1.0,60,,,,,,,,1,0,6,3,1,5,hiragana4.xlsx,hiragana41.xlsx,,,,,,,,,,,,,,,,,m,0.196,2,0,92,12,1,91,i,k,D,A,m,,,
,,,,,,,,,,,,,,,,,,2019-05-23_22h13.12.454,Probabilistic Learning,3.1.0,60,,,,,,,,1,0,6,3,1,5,hiragana4.xlsx,hiragana41.xlsx,,,,,,,,,,,,,,,,,m,0.177,2,0,92,4,1,91,M,n,E,F,,,,
,,,,,,,,,,,,,,,,,,2019-05-23_22h13.12.454,Probabilistic Learning,3.1.0,60,,,,,,,,1,0,6,3,1,5,hiragana4.xlsx,hiragana41.xlsx,,,,,,,,,,,,,,,,,m,0.294,2,0,92,45,1,91,n,i,f,d,,,,
,,,,,,,,,,,,,,,,,,2019-05-23_22h13.12.454,Probabilistic Learning,3.1.0,60,,,,,,,,1,0,6,3,1,5,hiragana4.xlsx,hiragana41.xlsx,,,,,,,,,,,,,,,,,m,0.16,2,0,92,32,1,91,M,R,E,B,,c,,
,,,,,,,,,,,,,,,,,,2019-05-23_22h13.12.454,Probabilistic Learning,3.1.0,60,,,,,,,,1,0,6,3,1,5,hiragana4.xlsx,hiragana41.xlsx,,,,,,,,,,,,,,,,,m,0.193,2,0,92,35,1,91,R,n,B,F,,m,,
,,,,,,,,,,,,,,,,,,2019-05-23_22h13.12.454,Probabilistic Learning,3.1.0,60,,,,,,,,1,0,6,3,1,5,hiragana4.xlsx,hiragana41.xlsx,,,,,,,,,,,,,,,,,m,0.226,2,0,92,17,1,91,M,k,E,A,m,,,
,,,,,,,,,,,,,,,,,,2019-05-23_22h13.12.454,Probabilistic Learning,3.1.0,60,,,,,,,,1,0,6,3,1,5,hiragana4.xlsx,hiragana41.xlsx,,,,,,,,,,,,,,,,,m,0.211,2,0,92,29,1,91,i,R,D,B,,c,,
,,,,,,,,,,,,,,,,,,2019-05-23_22h13.12.454,Probabilistic Learning,3.1.0,60,,,,,,,,1,0,6,3,1,5,hiragana4.xlsx,hiragana41.xlsx,,,,,,,,,,,,,,,,,m,0.23,2,0,92,43,1,91,M,i,e,d,,,,
,,,,,,,,,,,,,,,,,,2019-05-23_22h13.12.454,Probabilistic Learning,3.1.0,60,,,,,,,,1,0,6,3,1,5,hiragana4.xlsx,hiragana41.xlsx,,,,,,,,,,,,,,,,,m,0.243,2,0,92,25,1,91,c,R,C,B,,c,,
,,,,,,,,,,,,,,,,,,2019-05-23_22h13.12.454,Probabilistic Learning,3.1.0,60,,,,,,,,1,0,6,3,1,5,hiragana4.xlsx,hiragana41.xlsx,,,,,,,,,,,,,,,,,m,0.313,2,0,92,31,1,91,R,M,B,E,,m,,
,,,,,,,,,,,,,,,,,,2019-05-23_22h13.12.454,Probabilistic Learning,3.1.0,60,,,,,,,,1,0,6,3,1,5,hiragana4.xlsx,hiragana41.xlsx,,,,,,,,,,,,,,,,,m,0.043,2,0,92,41,1,91,n,c,f,c,,,,
,,,,,,,,,,,,,,,,,,2019-05-23_22h13.12.454,Probabilistic Learning,3.1.0,60,,,,,,,,1,0,6,3,1,5,hiragana4.xlsx,hiragana41.xlsx,,,,,,,,,,,,,,,,,m,0.175,2,0,92,14,1,91,k,M,A,E,c,,,
,,,,,,,,,,,,,,,,,,2019-05-23_22h13.12.454,Probabilistic Learning,3.1.0,60,,,,,,,,1,0,6,3,1,5,hiragana4.xlsx,hiragana41.xlsx,,,,,,,,,,,,,,,,,m,0.128,2,0,92,10,1,91,k,i,A,D,c,,,
,,,,,,,,,,,,,,,,,,2019-05-23_22h13.12.454,Probabilistic Learning,3.1.0,60,,,,,,,,1,0,6,3,1,5,hiragana4.xlsx,hiragana41.xlsx,,,,,,,,,,,,,,,,,m,0.246,2,0,92,1,1,91,R,k,B,A,,,,
,,,,,,,,,,,,,,,,,,2019-05-23_22h13.12.454,Probabilistic Learning,3.1.0,60,,,,,,,,1,0,6,3,1,5,hiragana4.xlsx,hiragana41.xlsx,,,,,,,,,,,,,,,,,m,0.245,2,0,92,25,1,91,c,R,C,B,,c,,
,,,,,,,,,,,,,,,,,,2019-05-23_22h13.12.454,Probabilistic Learning,3.1.0,60,,,,,,,,1,0,6,3,1,5,hiragana4.xlsx,hiragana41.xlsx,,,,,,,,,,,,,,,,,m,0.077,2,0,92,40,1,91,c,n,c,f,,,,
,,,,,,,,,,,,,,,,,,2019-05-23_22h13.12.454,Probabilistic Learning,3.1.0,60,,,,,,,,1,0,6,3,1,5,hiragana4.xlsx,hiragana41.xlsx,,,,,,,,,,,,,,,,,m,0.044,2,0,92,39,1,91,M,c,e,c,,,,
,,,,,,,,,,,,,,,,,,2019-05-23_22h13.12.454,Probabilistic Learning,3.1.0,60,,,,,,,,1,0,6,3,1,5,hiragana4.xlsx,hiragana41.xlsx,,,,,,,,,,,,,,,,,m,0.245,2,0,92,10,1,91,k,i,A,D,c,,,
,,,,,,,,,,,,,,,,,,2019-05-23_22h13.12.454,Probabilistic Learning,3.1.0,60,,,,,,,,1,0,6,3,1,5,hiragana4.xlsx,hiragana41.xlsx,,,,,,,,,,,,,,,,,m,0.211,2,0,92,37,1,91,n,R,F,B,,c,,
,,,,,,,,,,,,,,,,,,2019-05-23_22h13.12.454,Probabilistic Learning,3.1.0,60,,,,,,,,1,0,6,3,1,5,hiragana4.xlsx,hiragana41.xlsx,,,,,,,,,,,,,,,,,m,0.21,2,0,92,11,1,91,k,i,A,D,c,,,
,,,,,,,,,,,,,,,,,,2019-05-23_22h13.12.454,Probabilistic Learning,3.1.0,60,,,,,,,,1,0,6,3,1,5,hiragana4.xlsx,hiragana41.xlsx,,,,,,,,,,,,,,,,,m,0.18,2,0,92,28,1,91,i,R,D,B,,c,,
,,,,,,,,,,,,,,,,,,2019-05-23_22h13.12.454,Probabilistic Learning,3.1.0,60,,,,,,,,1,0,6,3,1,5,hiragana4.xlsx,hiragana41.xlsx,,,,,,,,,,,,,,,,,m,0.212,2,0,92,15,1,91,k,M,A,E,c,,,
,,,,,,,,,,,,,,,,,,2019-05-23_22h13.12.454,Probabilistic Learning,3.1.0,60,,,,,,,,1,0,6,3,1,5,hiragana4.xlsx,hiragana41.xlsx,,,,,,,,,,,,,,,,,m,0.008,2,0,92,30,1,91,R,M,B,E,,m,,
,,,,,,,,,,,,,,,,,,2019-05-23_22h13.12.454,Probabilistic Learning,3.1.0,60,,,,,,,,1,0,6,3,1,5,hiragana4.xlsx,hiragana41.xlsx,,,,,,,,,,,,,,,,,m,0.212,2,0,92,34,1,91,R,n,B,F,,m,,
,,,,,,,,,,,,,,,,,,2019-05-23_22h13.12.454,Probabilistic Learning,3.1.0,60,,,,,,,,1,0,6,3,1,5,hiragana4.xlsx,hiragana41.xlsx,,,,,,,,,,,,,,,,,m,0.111,2,0,92,33,1,91,M,R,E,B,,c,,
,,,,,,,,,,,,,,,,,,2019-05-23_22h13.12.454,Probabilistic Learning,3.1.0,60,,,,,,,,1,0,6,3,1,5,hiragana4.xlsx,hiragana41.xlsx,,,,,,,,,,,,,,,,,m,0.127,2,0,92,3,1,91,i,c,D,C,,,,
,,,,,,,,,,,,,,,,,,2019-05-23_22h13.12.454,Probabilistic Learning,3.1.0,60,,,,,,,,1,0,6,3,1,5,hiragana4.xlsx,hiragana41.xlsx,,,,,,,,,,,,,,,,,m,0.211,2,0,92,16,1,91,M,k,E,A,m,,,
,,,,,,,,,,,,,,,,,,2019-05-23_22h13.12.454,Probabilistic Learning,3.1.0,60,,,,,,,,1,0,6,3,1,5,hiragana4.xlsx,hiragana41.xlsx,,,,,,,,,,,,,,,,,m,0.226,2,0,92,7,1,91,k,c,A,C,c,,,
,,,,,,,,,,,,,,,,,,2019-05-23_22h13.12.454,Probabilistic Learning,3.1.0,60,,,,,,,,1,0,6,3,1,5,hiragana4.xlsx,hiragana41.xlsx,,,,,,,,,,,,,,,,,m,0.259,2,0,92,5,1,91,n,M,F,E,,,,
,,,,,,,,,,,,,,,,,,2019-05-23_22h13.12.454,Probabilistic Learning,3.1.0,60,,,,,,,,1,0,6,3,1,5,hiragana4.xlsx,hiragana41.xlsx,,,,,,,,,,,,,,,,,m,0.195,2,0,92,9,1,91,c,k,C,A,m,,,
,,,,,,,,,,,,,,,,,,2019-05-23_22h13.12.454,Probabilistic Learning,3.1.0,60,,,,,,,,1,0,6,3,1,5,hiragana4.xlsx,hiragana41.xlsx,,,,,,,,,,,,,,,,,m,0.21,2,0,92,22,1,91,R,c,B,C,,m,,
,,,,,,,,,,,,,,,,,,2019-05-23_22h13.12.454,Probabilistic Learning,3.1.0,60,,,,,,,,1,0,6,3,1,5,hiragana4.xlsx,hiragana41.xlsx,,,,,,,,,,,,,,,,,m,0.194,2,0,92,31,1,91,R,M,B,E,,m,,
,,,,,,,,,,,,,,,,,,2019-05-23_22h13.12.454,Probabilistic Learning,3.1.0,60,,,,,,,,1,0,6,3,1,5,hiragana4.xlsx,hiragana41.xlsx,,,,,,,,,,,,,,,,,m,0.062,2,0,92,6,1,91,k,c,A,C,c,,,
,,,,,,,,,,,,,,,,,,2019-05-23_22h13.12.454,Probabilistic Learning,3.1.0,60,,,,,,,,1,0,6,3,1,5,hiragana4.xlsx,hiragana41.xlsx,,,,,,,,,,,,,,,,,m,0.196,2,0,92,44,1,91,i,n,d,f,,,,
,,,,,,,,,,,,,,,,,,2019-05-23_22h13.12.454,Probabilistic Learning,3.1.0,60,,,,,,,,1,0,6,3,1,5,hiragana4.xlsx,hiragana41.xlsx,,,,,,,,,,,,,,,,,m,0.214,2,0,92,45,1,91,n,i,f,d,,,,
,,,,,,,,,,,,,,,,,,2019-05-23_22h13.12.454,Probabilistic Learning,3.1.0,60,,,,,,,,1,0,6,3,1,5,hiragana4.xlsx,hiragana41.xlsx,,,,,,,,,,,,,,,,,m,0.01,2,0,92,26,1,91,R,i,B,D,,m,,
,,,,,,,,,,,,,,,,,,2019-05-23_22h13.12.454,Probabilistic Learning,3.1.0,60,,,,,,,,1,0,6,3,1,5,hiragana4.xlsx,hiragana41.xlsx,,,,,,,,,,,,,,,,,m,0.109,2,0,92,41,1,91,n,c,f,c,,,,
,,,,,,,,,,,,,,,,,,2019-05-23_22h13.12.454,Probabilistic Learning,3.1.0,60,,,,,,,,1,0,6,3,1,5,hiragana4.xlsx,hiragana41.xlsx,,,,,,,,,,,,,,,,,m,0.212,2,0,92,35,1,91,R,n,B,F,,m,,
,,,,,,,,,,,,,,,,,,2019-05-23_22h13.12.454,Probabilistic Learning,3.1.0,60,,,,,,,,1,0,6,3,1,5,hiragana4.xlsx,hiragana41.xlsx,,,,,,,,,,,,,,,,,m,0.26,2,0,92,27,1,91,R,i,B,D,,m,,
,,,,,,,,,,,,,,,,,,2019-05-23_22h13.12.454,Probabilistic Learning,3.1.0,60,,,,,,,,1,0,6,3,1,5,hiragana4.xlsx,hiragana41.xlsx,,,,,,,,,,,,,,,,,m,0.111,2,0,92,29,1,91,i,R,D,B,,c,,
,,,,,,,,,,,,,,,,,,2019-05-23_22h13.12.454,Probabilistic Learning,3.1.0,60,,,,,,,,1,0,6,3,1,5,hiragana4.xlsx,hiragana41.xlsx,,,,,,,,,,,,,,,,,m,0.229,2,0,92,13,1,91,i,k,D,A,m,,,
,,,,,,,,,,,,,,,,,,2019-05-23_22h13.12.454,Probabilistic Learning,3.1.0,60,,,,,,,,1,0,6,3,1,5,hiragana4.xlsx,hiragana41.xlsx,,,,,,,,,,,,,,,,,m,0.209,2,0,92,17,1,91,M,k,E,A,m,,,
,,,,,,,,,,,,,,,,,,2019-05-23_22h13.12.454,Probabilistic Learning,3.1.0,60,,,,,,,,1,0,6,3,1,5,hiragana4.xlsx,hiragana41.xlsx,,,,,,,,,,,,,,,,,m,0.26,2,0,92,42,1,91,i,M,d,e,,,,
,,,,,,,,,,,,,,,,,,2019-05-23_22h13.12.454,Probabilistic Learning,3.1.0,60,,,,,,,,1,0,6,3,1,5,hiragana4.xlsx,hiragana41.xlsx,,,,,,,,,,,,,,,,,m,0.129,2,0,92,8,1,91,c,k,C,A,m,,,
,,,,,,,,,,,,,,,,,,2019-05-23_22h13.12.454,Probabilistic Learning,3.1.0,60,,,,,,,,1,0,6,3,1,5,hiragana4.xlsx,hiragana41.xlsx,,,,,,,,,,,,,,,,,m,0.208,2,0,92,43,1,91,M,i,e,d,,,,
,,,,,,,,,,,,,,,,,,2019-05-23_22h13.12.454,Probabilistic Learning,3.1.0,60,,,,,,,,1,0,6,3,1,5,hiragana4.xlsx,hiragana41.xlsx,,,,,,,,,,,,,,,,,m,0.177,2,0,92,38,1,91,c,M,C,E,,,,
,,,,,,,,,,,,,,,,,,2019-05-23_22h13.12.454,Probabilistic Learning,3.1.0,60,,,,,,,,1,0,6,3,1,5,hiragana4.xlsx,hiragana41.xlsx,,,,,,,,,,,,,,,,,m,0.145,2,0,92,21,1,91,n,k,F,A,m,,,
,,,,,,,,,,,,,,,,,,2019-05-23_22h13.12.454,Probabilistic Learning,3.1.0,60,,,,,,,,1,0,6,3,1,5,hiragana4.xlsx,hiragana41.xlsx,,,,,,,,,,,,,,,,,m,0.128,2,0,92,36,1,91,n,R,F,B,,c,,
,,,,,,,,,,,,,,,,,,2019-05-23_22h13.12.454,Probabilistic Learning,3.1.0,60,,,,,,,,1,0,6,3,1,5,hiragana4.xlsx,hiragana41.xlsx,,,,,,,,,,,,,,,,,m,0.161,2,0,92,32,1,91,M,R,E,B,,c,,
,,,,,,,,,,,,,,,,,,2019-05-23_22h13.12.454,Probabilistic Learning,3.1.0,60,,,,,,,,1,0,6,3,1,5,hiragana4.xlsx,hiragana41.xlsx,,,,,,,,,,,,,,,,,m,0.293,2,0,92,23,1,91,R,c,B,C,,m,,
,,,,,,,,,,,,,,,,,,2019-05-23_22h13.12.454,Probabilistic Learning,3.1.0,60,,,,,,,,1,0,6,3,1,5,hiragana4.xlsx,hiragana41.xlsx,,,,,,,,,,,,,,,,,m,0.143,2,0,92,12,1,91,i,k,D,A,m,,,
,,,,,,,,,,,,,,,,,,2019-05-23_22h13.12.454,Probabilistic Learning,3.1.0,60,,,,,,,,1,0,6,3,1,5,hiragana4.xlsx,hiragana41.xlsx,,,,,,,,,,,,,,,,,m,0.211,2,0,92,2,1,91,c,i,C,D,,,,
,,,,,,,,,,,,,,,,,,2019-05-23_22h13.12.454,Probabilistic Learning,3.1.0,60,,,,,,,,1,0,6,3,1,5,hiragana4.xlsx,hiragana41.xlsx,,,,,,,,,,,,,,,,,m,0.095,2,0,92,4,1,91,M,n,E,F,,,,
,,,,,,,,,,,,,,,,,,2019-05-23_22h13.12.454,Probabilistic Learning,3.1.0,60,,,,,,,,1,0,6,3,1,5,hiragana4.xlsx,hiragana41.xlsx,,,,,,,,,,,,,,,,,m,0.229,2,0,92,18,1,91,k,n,A,F,c,,,
,,,,,,,,,,,,,,,,,,2019-05-23_22h13.12.454,Probabilistic Learning,3.1.0,60,,,,,,,,1,0,6,3,1,5,hiragana4.xlsx,hiragana41.xlsx,,,,,,,,,,,,,,,,,m,0.245,2,0,92,0,1,91,k,R,A,B,,,,
,,,,,,,,,,,,,,,,,,2019-05-23_22h13.12.454,Probabilistic Learning,3.1.0,60,,,,,,,,1,0,6,3,1,5,hiragana4.xlsx,hiragana41.xlsx,,,,,,,,,,,,,,,,,m,0.159,2,0,92,19,1,91,k,n,A,F,c,,,
,,,,,,,,,,,,,,,,,,2019-05-23_22h13.12.454,Probabilistic Learning,3.1.0,60,,,,,,,,1,0,6,3,1,5,hiragana4.xlsx,hiragana41.xlsx,,,,,,,,,,,,,,,,,m,0.127,2,0,92,24,1,91,c,R,C,B,,c,,
,,,,,,,,,,,,,,,,,,2019-05-23_22h13.12.454,Probabilistic Learning,3.1.0,60,,,,,,,,1,0,6,3,1,5,hiragana4.xlsx,hiragana41.xlsx,,,,,,,,,,,,,,,,,m,0.21,2,0,92,20,1,91,n,k,F,A,m,,,
,,,,,,,,,,,,,,,,,,2019-05-23_22h13.12.454,Probabilistic Learning,3.1.0,60,,,,,,,,1,0,6,3,1,5,hiragana4.xlsx,hiragana41.xlsx,,,,,,,,,,,,,,,,,m,0.062,2,0,92,14,1,91,k,M,A,E,c,,,
,,,,,,,,,,,,,,,,,,2019-05-23_22h13.12.454,Probabilistic Learning,3.1.0,60,,,,,,,,1,0,6,3,1,5,hiragana4.xlsx,hiragana41.xlsx,,,,,,,,,,,,,,,,,,,,,,,,,,,,,,,space,0.91
