welc_resp.keys,welc_resp.rt,instr0_resp.keys,instr0_resp.rt,prep_resp.keys,prep_resp.corr,preparation.thisRepN,preparation.thisTrialN,preparation.thisN,preparation.thisIndex,preparation.ran,preparation.order,letter10,letter20,corrAns0,participant,,date,expName,psychopyVersion,frameRate,prep_resp.rt,outro_resp.keys,outro_resp.rt,instr1_resp.keys,instr1_resp.rt,resp.keys,resp.corr,resp.rt,letterMaster.thisRepN,letterMaster.thisTrialN,letterMaster.thisN,letterMaster.thisIndex,letterMaster.ran,letterMaster.order,letterset,letterset2,practice.thisRepN,practice.thisTrialN,practice.thisN,practice.thisIndex,practice.ran,practice.order,letter1,letter2,corrAns,letterA,letterC,letterE,instr2_resp.keys,instr2_resp.rt,instr3_resp.keys,instr3_resp.rt,test_resp.keys,test_resp.rt,test.thisRepN,test.thisTrialN,test.thisN,test.thisIndex,test.ran,test.order,letter3,letter4,letterA2,letterB2,pickA,avoidB,outro_resp2.keys,outro_resp2.rt
space,0.968,space,1.644,,0,1,0,10,3,1,9,L,U,m,,,2019-05-23_22h56.32.446,Probabilistic Learning,3.1.0,60,,,,,,,,,,,,,,,,,,,,,,,,,,,,,,,,,,,,,,,,,,,,,,,,
,,,,m,0,1,0,10,1,1,9,U,L,c,,,2019-05-23_22h56.32.446,Probabilistic Learning,3.1.0,60,0.395,,,,,,,,,,,,,,,,,,,,,,,,,,,,,,,,,,,,,,,,,,,,,,,
,,,,c,0,1,0,10,9,1,9,U,L,m,,,2019-05-23_22h56.32.446,Probabilistic Learning,3.1.0,60,0.412,,,,,,,,,,,,,,,,,,,,,,,,,,,,,,,,,,,,,,,,,,,,,,,
,,,,c,1,1,0,10,5,1,9,U,L,c,,,2019-05-23_22h56.32.446,Probabilistic Learning,3.1.0,60,0.326,,,,,,,,,,,,,,,,,,,,,,,,,,,,,,,,,,,,,,,,,,,,,,,
,,,,m,0,1,0,10,8,1,9,L,U,c,,,2019-05-23_22h56.32.446,Probabilistic Learning,3.1.0,60,0.426,,,,,,,,,,,,,,,,,,,,,,,,,,,,,,,,,,,,,,,,,,,,,,,
,,,,c,1,1,0,10,6,1,9,U,L,c,,,2019-05-23_22h56.32.446,Probabilistic Learning,3.1.0,60,1.109,,,,,,,,,,,,,,,,,,,,,,,,,,,,,,,,,,,,,,,,,,,,,,,
,,,,c,1,1,0,10,0,1,9,U,L,c,,,2019-05-23_22h56.32.446,Probabilistic Learning,3.1.0,60,0.329,,,,,,,,,,,,,,,,,,,,,,,,,,,,,,,,,,,,,,,,,,,,,,,
,,,,c,1,1,0,10,4,1,9,U,L,c,,,2019-05-23_22h56.32.446,Probabilistic Learning,3.1.0,60,0.343,,,,,,,,,,,,,,,,,,,,,,,,,,,,,,,,,,,,,,,,,,,,,,,
,,,,m,1,1,0,10,7,1,9,L,U,m,,,2019-05-23_22h56.32.446,Probabilistic Learning,3.1.0,60,0.427,,,,,,,,,,,,,,,,,,,,,,,,,,,,,,,,,,,,,,,,,,,,,,,
,,,,m,1,1,0,10,2,1,9,L,U,m,,,2019-05-23_22h56.32.446,Probabilistic Learning,3.1.0,60,0.493,,,,,,,,,,,,,,,,,,,,,,,,,,,,,,,,,,,,,,,,,,,,,,,
,,,,,,,,,,,,,,,,,2019-05-23_22h56.32.446,Probabilistic Learning,3.1.0,60,,space,2.158,space,0.66,m,1,0.54,1,0,6,3,1,5,hiragana4.xlsx,hiragana41.xlsx,6,0,180,27,1,179,M,n,m,,,c,,,,,,,,,,,,,,,,,,,,
,,,,,,,,,,,,,,,,,2019-05-23_22h56.32.446,Probabilistic Learning,3.1.0,60,,,,,,m,0,0.411,1,0,6,3,1,5,hiragana4.xlsx,hiragana41.xlsx,6,0,180,28,1,179,n,M,c,,,m,,,,,,,,,,,,,,,,,,,,
,,,,,,,,,,,,,,,,,2019-05-23_22h56.32.446,Probabilistic Learning,3.1.0,60,,,,,,c,1,0.607,1,0,6,3,1,5,hiragana4.xlsx,hiragana41.xlsx,6,0,180,0,1,179,k,R,c,c,,,,,,,,,,,,,,,,,,,,,,
,,,,,,,,,,,,,,,,,2019-05-23_22h56.32.446,Probabilistic Learning,3.1.0,60,,,,,,c,1,0.432,1,0,6,3,1,5,hiragana4.xlsx,hiragana41.xlsx,6,0,180,22,1,179,M,n,c,,,c,,,,,,,,,,,,,,,,,,,,
,,,,,,,,,,,,,,,,,2019-05-23_22h56.32.446,Probabilistic Learning,3.1.0,60,,,,,,c,1,0.442,1,0,6,3,1,5,hiragana4.xlsx,hiragana41.xlsx,6,0,180,18,1,179,i,c,c,,m,,,,,,,,,,,,,,,,,,,,,
,,,,,,,,,,,,,,,,,2019-05-23_22h56.32.446,Probabilistic Learning,3.1.0,60,,,,,,c,1,0.41,1,0,6,3,1,5,hiragana4.xlsx,hiragana41.xlsx,6,0,180,10,1,179,c,i,c,,c,,,,,,,,,,,,,,,,,,,,,
,,,,,,,,,,,,,,,,,2019-05-23_22h56.32.446,Probabilistic Learning,3.1.0,60,,,,,,m,1,0.346,1,0,6,3,1,5,hiragana4.xlsx,hiragana41.xlsx,6,0,180,16,1,179,i,c,m,,m,,,,,,,,,,,,,,,,,,,,,
,,,,,,,,,,,,,,,,,2019-05-23_22h56.32.446,Probabilistic Learning,3.1.0,60,,,,,,m,0,0.526,1,0,6,3,1,5,hiragana4.xlsx,hiragana41.xlsx,6,0,180,9,1,179,R,k,c,m,,,,,,,,,,,,,,,,,,,,,,
,,,,,,,,,,,,,,,,,2019-05-23_22h56.32.446,Probabilistic Learning,3.1.0,60,,,,,,c,1,0.374,1,0,6,3,1,5,hiragana4.xlsx,hiragana41.xlsx,6,0,180,2,1,179,k,R,c,c,,,,,,,,,,,,,,,,,,,,,,
,,,,,,,,,,,,,,,,,2019-05-23_22h56.32.446,Probabilistic Learning,3.1.0,60,,,,,,m,1,0.462,1,0,6,3,1,5,hiragana4.xlsx,hiragana41.xlsx,6,0,180,7,1,179,R,k,m,m,,,,,,,,,,,,,,,,,,,,,,
,,,,,,,,,,,,,,,,,2019-05-23_22h56.32.446,Probabilistic Learning,3.1.0,60,,,,,,c,1,0.659,1,0,6,3,1,5,hiragana4.xlsx,hiragana41.xlsx,6,0,180,13,1,179,c,i,c,,c,,,,,,,,,,,,,,,,,,,,,
,,,,,,,,,,,,,,,,,2019-05-23_22h56.32.446,Probabilistic Learning,3.1.0,60,,,,,,c,1,0.408,1,0,6,3,1,5,hiragana4.xlsx,hiragana41.xlsx,6,0,180,11,1,179,c,i,c,,c,,,,,,,,,,,,,,,,,,,,,
,,,,,,,,,,,,,,,,,2019-05-23_22h56.32.446,Probabilistic Learning,3.1.0,60,,,,,,m,1,0.446,1,0,6,3,1,5,hiragana4.xlsx,hiragana41.xlsx,6,0,180,6,1,179,R,k,m,m,,,,,,,,,,,,,,,,,,,,,,
,,,,,,,,,,,,,,,,,2019-05-23_22h56.32.446,Probabilistic Learning,3.1.0,60,,,,,,c,1,0.478,1,0,6,3,1,5,hiragana4.xlsx,hiragana41.xlsx,6,0,180,12,1,179,c,i,c,,c,,,,,,,,,,,,,,,,,,,,,
,,,,,,,,,,,,,,,,,2019-05-23_22h56.32.446,Probabilistic Learning,3.1.0,60,,,,,,c,0,0.53,1,0,6,3,1,5,hiragana4.xlsx,hiragana41.xlsx,6,0,180,8,1,179,k,R,m,c,,,,,,,,,,,,,,,,,,,,,,
,,,,,,,,,,,,,,,,,2019-05-23_22h56.32.446,Probabilistic Learning,3.1.0,60,,,,,,c,1,0.476,1,0,6,3,1,5,hiragana4.xlsx,hiragana41.xlsx,6,0,180,20,1,179,M,n,c,,,c,,,,,,,,,,,,,,,,,,,,
,,,,,,,,,,,,,,,,,2019-05-23_22h56.32.446,Probabilistic Learning,3.1.0,60,,,,,,m,0,0.478,1,0,6,3,1,5,hiragana4.xlsx,hiragana41.xlsx,6,0,180,17,1,179,i,c,c,,m,,,,,,,,,,,,,,,,,,,,,
,,,,,,,,,,,,,,,,,2019-05-23_22h56.32.446,Probabilistic Learning,3.1.0,60,,,,,,c,0,0.394,1,0,6,3,1,5,hiragana4.xlsx,hiragana41.xlsx,6,0,180,26,1,179,M,n,m,,,c,,,,,,,,,,,,,,,,,,,,
,,,,,,,,,,,,,,,,,2019-05-23_22h56.32.446,Probabilistic Learning,3.1.0,60,,,,,,c,1,0.513,1,0,6,3,1,5,hiragana4.xlsx,hiragana41.xlsx,6,0,180,3,1,179,k,R,c,c,,,,,,,,,,,,,,,,,,,,,,
,,,,,,,,,,,,,,,,,2019-05-23_22h56.32.446,Probabilistic Learning,3.1.0,60,,,,,,c,1,0.492,1,0,6,3,1,5,hiragana4.xlsx,hiragana41.xlsx,6,0,180,21,1,179,M,n,c,,,c,,,,,,,,,,,,,,,,,,,,
,,,,,,,,,,,,,,,,,2019-05-23_22h56.32.446,Probabilistic Learning,3.1.0,60,,,,,,m,1,0.547,1,0,6,3,1,5,hiragana4.xlsx,hiragana41.xlsx,6,0,180,14,1,179,i,c,m,,m,,,,,,,,,,,,,,,,,,,,,
,,,,,,,,,,,,,,,,,2019-05-23_22h56.32.446,Probabilistic Learning,3.1.0,60,,,,,,m,1,0.495,1,0,6,3,1,5,hiragana4.xlsx,hiragana41.xlsx,6,0,180,25,1,179,n,M,m,,,m,,,,,,,,,,,,,,,,,,,,
,,,,,,,,,,,,,,,,,2019-05-23_22h56.32.446,Probabilistic Learning,3.1.0,60,,,,,,c,1,0.426,1,0,6,3,1,5,hiragana4.xlsx,hiragana41.xlsx,6,0,180,1,1,179,k,R,c,c,,,,,,,,,,,,,,,,,,,,,,
,,,,,,,,,,,,,,,,,2019-05-23_22h56.32.446,Probabilistic Learning,3.1.0,60,,,,,,m,1,0.442,1,0,6,3,1,5,hiragana4.xlsx,hiragana41.xlsx,6,0,180,23,1,179,n,M,m,,,m,,,,,,,,,,,,,,,,,,,,
,,,,,,,,,,,,,,,,,2019-05-23_22h56.32.446,Probabilistic Learning,3.1.0,60,,,,,,m,1,0.43,1,0,6,3,1,5,hiragana4.xlsx,hiragana41.xlsx,6,0,180,4,1,179,R,k,m,m,,,,,,,,,,,,,,,,,,,,,,
,,,,,,,,,,,,,,,,,2019-05-23_22h56.32.446,Probabilistic Learning,3.1.0,60,,,,,,c,0,0.56,1,0,6,3,1,5,hiragana4.xlsx,hiragana41.xlsx,6,0,180,19,1,179,c,i,m,,c,,,,,,,,,,,,,,,,,,,,,
,,,,,,,,,,,,,,,,,2019-05-23_22h56.32.446,Probabilistic Learning,3.1.0,60,,,,,,m,1,0.611,1,0,6,3,1,5,hiragana4.xlsx,hiragana41.xlsx,6,0,180,24,1,179,n,M,m,,,m,,,,,,,,,,,,,,,,,,,,
,,,,,,,,,,,,,,,,,2019-05-23_22h56.32.446,Probabilistic Learning,3.1.0,60,,,,,,m,1,0.412,1,0,6,3,1,5,hiragana4.xlsx,hiragana41.xlsx,6,0,180,5,1,179,R,k,m,m,,,,,,,,,,,,,,,,,,,,,,
,,,,,,,,,,,,,,,,,2019-05-23_22h56.32.446,Probabilistic Learning,3.1.0,60,,,,,,m,0,0.459,1,0,6,3,1,5,hiragana4.xlsx,hiragana41.xlsx,6,0,180,29,1,179,n,M,c,,,m,,,,,,,,,,,,,,,,,,,,
,,,,,,,,,,,,,,,,,2019-05-23_22h56.32.446,Probabilistic Learning,3.1.0,60,,,,,,m,1,0.508,1,0,6,3,1,5,hiragana4.xlsx,hiragana41.xlsx,6,0,180,15,1,179,i,c,m,,m,,,,,,,,,,,,,,,,,,,,,
,,,,,,,,,,,,,,,,,2019-05-23_22h56.32.446,Probabilistic Learning,3.1.0,60,,,,,,m,0,0.494,1,0,6,3,1,5,hiragana4.xlsx,hiragana41.xlsx,6,0,180,21,1,179,M,n,c,,,c,,,,,,,,,,,,,,,,,,,,
,,,,,,,,,,,,,,,,,2019-05-23_22h56.32.446,Probabilistic Learning,3.1.0,60,,,,,,c,1,0.443,1,0,6,3,1,5,hiragana4.xlsx,hiragana41.xlsx,6,0,180,20,1,179,M,n,c,,,c,,,,,,,,,,,,,,,,,,,,
,,,,,,,,,,,,,,,,,2019-05-23_22h56.32.446,Probabilistic Learning,3.1.0,60,,,,,,c,0,0.496,1,0,6,3,1,5,hiragana4.xlsx,hiragana41.xlsx,6,0,180,8,1,179,k,R,m,c,,,,,,,,,,,,,,,,,,,,,,
,,,,,,,,,,,,,,,,,2019-05-23_22h56.32.446,Probabilistic Learning,3.1.0,60,,,,,,c,1,0.446,1,0,6,3,1,5,hiragana4.xlsx,hiragana41.xlsx,6,0,180,1,1,179,k,R,c,c,,,,,,,,,,,,,,,,,,,,,,
,,,,,,,,,,,,,,,,,2019-05-23_22h56.32.446,Probabilistic Learning,3.1.0,60,,,,,,m,1,0.395,1,0,6,3,1,5,hiragana4.xlsx,hiragana41.xlsx,6,0,180,6,1,179,R,k,m,m,,,,,,,,,,,,,,,,,,,,,,
,,,,,,,,,,,,,,,,,2019-05-23_22h56.32.446,Probabilistic Learning,3.1.0,60,,,,,,m,1,0.459,1,0,6,3,1,5,hiragana4.xlsx,hiragana41.xlsx,6,0,180,5,1,179,R,k,m,m,,,,,,,,,,,,,,,,,,,,,,
,,,,,,,,,,,,,,,,,2019-05-23_22h56.32.446,Probabilistic Learning,3.1.0,60,,,,,,c,1,0.392,1,0,6,3,1,5,hiragana4.xlsx,hiragana41.xlsx,6,0,180,0,1,179,k,R,c,c,,,,,,,,,,,,,,,,,,,,,,
,,,,,,,,,,,,,,,,,2019-05-23_22h56.32.446,Probabilistic Learning,3.1.0,60,,,,,,m,1,0.511,1,0,6,3,1,5,hiragana4.xlsx,hiragana41.xlsx,6,0,180,15,1,179,i,c,m,,m,,,,,,,,,,,,,,,,,,,,,
,,,,,,,,,,,,,,,,,2019-05-23_22h56.32.446,Probabilistic Learning,3.1.0,60,,,,,,c,0,0.43,1,0,6,3,1,5,hiragana4.xlsx,hiragana41.xlsx,6,0,180,27,1,179,M,n,m,,,c,,,,,,,,,,,,,,,,,,,,
,,,,,,,,,,,,,,,,,2019-05-23_22h56.32.446,Probabilistic Learning,3.1.0,60,,,,,,m,0,0.41,1,0,6,3,1,5,hiragana4.xlsx,hiragana41.xlsx,6,0,180,28,1,179,n,M,c,,,m,,,,,,,,,,,,,,,,,,,,
,,,,,,,,,,,,,,,,,2019-05-23_22h56.32.446,Probabilistic Learning,3.1.0,60,,,,,,m,1,0.395,1,0,6,3,1,5,hiragana4.xlsx,hiragana41.xlsx,6,0,180,23,1,179,n,M,m,,,m,,,,,,,,,,,,,,,,,,,,
,,,,,,,,,,,,,,,,,2019-05-23_22h56.32.446,Probabilistic Learning,3.1.0,60,,,,,,m,0,0.513,1,0,6,3,1,5,hiragana4.xlsx,hiragana41.xlsx,6,0,180,17,1,179,i,c,c,,m,,,,,,,,,,,,,,,,,,,,,
,,,,,,,,,,,,,,,,,2019-05-23_22h56.32.446,Probabilistic Learning,3.1.0,60,,,,,,m,0,0.446,1,0,6,3,1,5,hiragana4.xlsx,hiragana41.xlsx,6,0,180,9,1,179,R,k,c,m,,,,,,,,,,,,,,,,,,,,,,
,,,,,,,,,,,,,,,,,2019-05-23_22h56.32.446,Probabilistic Learning,3.1.0,60,,,,,,c,1,0.559,1,0,6,3,1,5,hiragana4.xlsx,hiragana41.xlsx,6,0,180,13,1,179,c,i,c,,c,,,,,,,,,,,,,,,,,,,,,
,,,,,,,,,,,,,,,,,2019-05-23_22h56.32.446,Probabilistic Learning,3.1.0,60,,,,,,m,1,0.54,1,0,6,3,1,5,hiragana4.xlsx,hiragana41.xlsx,6,0,180,14,1,179,i,c,m,,m,,,,,,,,,,,,,,,,,,,,,
,,,,,,,,,,,,,,,,,2019-05-23_22h56.32.446,Probabilistic Learning,3.1.0,60,,,,,,c,1,0.493,1,0,6,3,1,5,hiragana4.xlsx,hiragana41.xlsx,6,0,180,2,1,179,k,R,c,c,,,,,,,,,,,,,,,,,,,,,,
,,,,,,,,,,,,,,,,,2019-05-23_22h56.32.446,Probabilistic Learning,3.1.0,60,,,,,,m,0,0.445,1,0,6,3,1,5,hiragana4.xlsx,hiragana41.xlsx,6,0,180,18,1,179,i,c,c,,m,,,,,,,,,,,,,,,,,,,,,
,,,,,,,,,,,,,,,,,2019-05-23_22h56.32.446,Probabilistic Learning,3.1.0,60,,,,,,c,0,0.512,1,0,6,3,1,5,hiragana4.xlsx,hiragana41.xlsx,6,0,180,24,1,179,n,M,m,,,m,,,,,,,,,,,,,,,,,,,,
,,,,,,,,,,,,,,,,,2019-05-23_22h56.32.446,Probabilistic Learning,3.1.0,60,,,,,,m,1,0.379,1,0,6,3,1,5,hiragana4.xlsx,hiragana41.xlsx,6,0,180,25,1,179,n,M,m,,,m,,,,,,,,,,,,,,,,,,,,
,,,,,,,,,,,,,,,,,2019-05-23_22h56.32.446,Probabilistic Learning,3.1.0,60,,,,,,m,1,0.545,1,0,6,3,1,5,hiragana4.xlsx,hiragana41.xlsx,6,0,180,16,1,179,i,c,m,,m,,,,,,,,,,,,,,,,,,,,,
,,,,,,,,,,,,,,,,,2019-05-23_22h56.32.446,Probabilistic Learning,3.1.0,60,,,,,,c,1,0.51,1,0,6,3,1,5,hiragana4.xlsx,hiragana41.xlsx,6,0,180,11,1,179,c,i,c,,c,,,,,,,,,,,,,,,,,,,,,
,,,,,,,,,,,,,,,,,2019-05-23_22h56.32.446,Probabilistic Learning,3.1.0,60,,,,,,m,1,0.427,1,0,6,3,1,5,hiragana4.xlsx,hiragana41.xlsx,6,0,180,7,1,179,R,k,m,m,,,,,,,,,,,,,,,,,,,,,,
,,,,,,,,,,,,,,,,,2019-05-23_22h56.32.446,Probabilistic Learning,3.1.0,60,,,,,,c,1,0.46,1,0,6,3,1,5,hiragana4.xlsx,hiragana41.xlsx,6,0,180,10,1,179,c,i,c,,c,,,,,,,,,,,,,,,,,,,,,
,,,,,,,,,,,,,,,,,2019-05-23_22h56.32.446,Probabilistic Learning,3.1.0,60,,,,,,c,1,0.643,1,0,6,3,1,5,hiragana4.xlsx,hiragana41.xlsx,6,0,180,22,1,179,M,n,c,,,c,,,,,,,,,,,,,,,,,,,,
,,,,,,,,,,,,,,,,,2019-05-23_22h56.32.446,Probabilistic Learning,3.1.0,60,,,,,,m,0,0.561,1,0,6,3,1,5,hiragana4.xlsx,hiragana41.xlsx,6,0,180,29,1,179,n,M,c,,,m,,,,,,,,,,,,,,,,,,,,
,,,,,,,,,,,,,,,,,2019-05-23_22h56.32.446,Probabilistic Learning,3.1.0,60,,,,,,c,1,0.443,1,0,6,3,1,5,hiragana4.xlsx,hiragana41.xlsx,6,0,180,3,1,179,k,R,c,c,,,,,,,,,,,,,,,,,,,,,,
,,,,,,,,,,,,,,,,,2019-05-23_22h56.32.446,Probabilistic Learning,3.1.0,60,,,,,,c,0,0.461,1,0,6,3,1,5,hiragana4.xlsx,hiragana41.xlsx,6,0,180,26,1,179,M,n,m,,,c,,,,,,,,,,,,,,,,,,,,
,,,,,,,,,,,,,,,,,2019-05-23_22h56.32.446,Probabilistic Learning,3.1.0,60,,,,,,m,1,0.379,1,0,6,3,1,5,hiragana4.xlsx,hiragana41.xlsx,6,0,180,4,1,179,R,k,m,m,,,,,,,,,,,,,,,,,,,,,,
,,,,,,,,,,,,,,,,,2019-05-23_22h56.32.446,Probabilistic Learning,3.1.0,60,,,,,,c,0,0.543,1,0,6,3,1,5,hiragana4.xlsx,hiragana41.xlsx,6,0,180,19,1,179,c,i,m,,c,,,,,,,,,,,,,,,,,,,,,
,,,,,,,,,,,,,,,,,2019-05-23_22h56.32.446,Probabilistic Learning,3.1.0,60,,,,,,c,1,0.364,1,0,6,3,1,5,hiragana4.xlsx,hiragana41.xlsx,,,,,,,,,,,,,space,1.807,space,1.281,m,0.313,2,0,92,21,1,91,n,k,F,A,m,,,
,,,,,,,,,,,,,,,,,2019-05-23_22h56.32.446,Probabilistic Learning,3.1.0,60,,,,,,,,,1,0,6,3,1,5,hiragana4.xlsx,hiragana41.xlsx,,,,,,,,,,,,,,,,,m,0.246,2,0,92,24,1,91,c,R,C,B,,c,,
,,,,,,,,,,,,,,,,,2019-05-23_22h56.32.446,Probabilistic Learning,3.1.0,60,,,,,,,,,1,0,6,3,1,5,hiragana4.xlsx,hiragana41.xlsx,,,,,,,,,,,,,,,,,m,0.243,2,0,92,1,1,91,R,k,B,A,,,,
,,,,,,,,,,,,,,,,,2019-05-23_22h56.32.446,Probabilistic Learning,3.1.0,60,,,,,,,,,1,0,6,3,1,5,hiragana4.xlsx,hiragana41.xlsx,,,,,,,,,,,,,,,,,m,0.243,2,0,92,20,1,91,n,k,F,A,m,,,
,,,,,,,,,,,,,,,,,2019-05-23_22h56.32.446,Probabilistic Learning,3.1.0,60,,,,,,,,,1,0,6,3,1,5,hiragana4.xlsx,hiragana41.xlsx,,,,,,,,,,,,,,,,,m,0.11,2,0,92,25,1,91,c,R,C,B,,c,,
,,,,,,,,,,,,,,,,,2019-05-23_22h56.32.446,Probabilistic Learning,3.1.0,60,,,,,,,,,1,0,6,3,1,5,hiragana4.xlsx,hiragana41.xlsx,,,,,,,,,,,,,,,,,m,0.244,2,0,92,36,1,91,n,R,F,B,,c,,
,,,,,,,,,,,,,,,,,2019-05-23_22h56.32.446,Probabilistic Learning,3.1.0,60,,,,,,,,,1,0,6,3,1,5,hiragana4.xlsx,hiragana41.xlsx,,,,,,,,,,,,,,,,,m,0.177,2,0,92,38,1,91,c,M,C,E,,,,
,,,,,,,,,,,,,,,,,2019-05-23_22h56.32.446,Probabilistic Learning,3.1.0,60,,,,,,,,,1,0,6,3,1,5,hiragana4.xlsx,hiragana41.xlsx,,,,,,,,,,,,,,,,,m,0.313,2,0,92,23,1,91,R,c,B,C,,m,,
,,,,,,,,,,,,,,,,,2019-05-23_22h56.32.446,Probabilistic Learning,3.1.0,60,,,,,,,,,1,0,6,3,1,5,hiragana4.xlsx,hiragana41.xlsx,,,,,,,,,,,,,,,,,m,0.345,2,0,92,4,1,91,M,n,E,F,,,,
,,,,,,,,,,,,,,,,,2019-05-23_22h56.32.446,Probabilistic Learning,3.1.0,60,,,,,,,,,1,0,6,3,1,5,hiragana4.xlsx,hiragana41.xlsx,,,,,,,,,,,,,,,,,m,0.227,2,0,92,31,1,91,R,M,B,E,,m,,
,,,,,,,,,,,,,,,,,2019-05-23_22h56.32.446,Probabilistic Learning,3.1.0,60,,,,,,,,,1,0,6,3,1,5,hiragana4.xlsx,hiragana41.xlsx,,,,,,,,,,,,,,,,,m,0.262,2,0,92,42,1,91,i,M,d,e,,,,
,,,,,,,,,,,,,,,,,2019-05-23_22h56.32.446,Probabilistic Learning,3.1.0,60,,,,,,,,,1,0,6,3,1,5,hiragana4.xlsx,hiragana41.xlsx,,,,,,,,,,,,,,,,,m,0.027,2,0,92,17,1,91,M,k,E,A,m,,,
,,,,,,,,,,,,,,,,,2019-05-23_22h56.32.446,Probabilistic Learning,3.1.0,60,,,,,,,,,1,0,6,3,1,5,hiragana4.xlsx,hiragana41.xlsx,,,,,,,,,,,,,,,,,m,0.211,2,0,92,5,1,91,n,M,F,E,,,,
,,,,,,,,,,,,,,,,,2019-05-23_22h56.32.446,Probabilistic Learning,3.1.0,60,,,,,,,,,1,0,6,3,1,5,hiragana4.xlsx,hiragana41.xlsx,,,,,,,,,,,,,,,,,m,0.246,2,0,92,29,1,91,i,R,D,B,,c,,
,,,,,,,,,,,,,,,,,2019-05-23_22h56.32.446,Probabilistic Learning,3.1.0,60,,,,,,,,,1,0,6,3,1,5,hiragana4.xlsx,hiragana41.xlsx,,,,,,,,,,,,,,,,,m,0.291,2,0,92,2,1,91,c,i,C,D,,,,
,,,,,,,,,,,,,,,,,2019-05-23_22h56.32.446,Probabilistic Learning,3.1.0,60,,,,,,,,,1,0,6,3,1,5,hiragana4.xlsx,hiragana41.xlsx,,,,,,,,,,,,,,,,,m,0.243,2,0,92,22,1,91,R,c,B,C,,m,,
,,,,,,,,,,,,,,,,,2019-05-23_22h56.32.446,Probabilistic Learning,3.1.0,60,,,,,,,,,1,0,6,3,1,5,hiragana4.xlsx,hiragana41.xlsx,,,,,,,,,,,,,,,,,m,0.094,2,0,92,11,1,91,k,i,A,D,c,,,
,,,,,,,,,,,,,,,,,2019-05-23_22h56.32.446,Probabilistic Learning,3.1.0,60,,,,,,,,,1,0,6,3,1,5,hiragana4.xlsx,hiragana41.xlsx,,,,,,,,,,,,,,,,,m,0.211,2,0,92,32,1,91,M,R,E,B,,c,,
,,,,,,,,,,,,,,,,,2019-05-23_22h56.32.446,Probabilistic Learning,3.1.0,60,,,,,,,,,1,0,6,3,1,5,hiragana4.xlsx,hiragana41.xlsx,,,,,,,,,,,,,,,,,m,0.229,2,0,92,37,1,91,n,R,F,B,,c,,
,,,,,,,,,,,,,,,,,2019-05-23_22h56.32.446,Probabilistic Learning,3.1.0,60,,,,,,,,,1,0,6,3,1,5,hiragana4.xlsx,hiragana41.xlsx,,,,,,,,,,,,,,,,,m,0.126,2,0,92,45,1,91,n,i,f,d,,,,
,,,,,,,,,,,,,,,,,2019-05-23_22h56.32.446,Probabilistic Learning,3.1.0,60,,,,,,,,,1,0,6,3,1,5,hiragana4.xlsx,hiragana41.xlsx,,,,,,,,,,,,,,,,,m,0.028,2,0,92,43,1,91,M,i,e,d,,,,
,,,,,,,,,,,,,,,,,2019-05-23_22h56.32.446,Probabilistic Learning,3.1.0,60,,,,,,,,,1,0,6,3,1,5,hiragana4.xlsx,hiragana41.xlsx,,,,,,,,,,,,,,,,,m,0.211,2,0,92,35,1,91,R,n,B,F,,m,,
,,,,,,,,,,,,,,,,,2019-05-23_22h56.32.446,Probabilistic Learning,3.1.0,60,,,,,,,,,1,0,6,3,1,5,hiragana4.xlsx,hiragana41.xlsx,,,,,,,,,,,,,,,,,m,0.194,2,0,92,13,1,91,i,k,D,A,m,,,
,,,,,,,,,,,,,,,,,2019-05-23_22h56.32.446,Probabilistic Learning,3.1.0,60,,,,,,,,,1,0,6,3,1,5,hiragana4.xlsx,hiragana41.xlsx,,,,,,,,,,,,,,,,,m,0.194,2,0,92,41,1,91,n,c,f,c,,,,
,,,,,,,,,,,,,,,,,2019-05-23_22h56.32.446,Probabilistic Learning,3.1.0,60,,,,,,,,,1,0,6,3,1,5,hiragana4.xlsx,hiragana41.xlsx,,,,,,,,,,,,,,,,,m,0.309,2,0,92,12,1,91,i,k,D,A,m,,,
,,,,,,,,,,,,,,,,,2019-05-23_22h56.32.446,Probabilistic Learning,3.1.0,60,,,,,,,,,1,0,6,3,1,5,hiragana4.xlsx,hiragana41.xlsx,,,,,,,,,,,,,,,,,m,0.159,2,0,92,39,1,91,M,c,e,c,,,,
,,,,,,,,,,,,,,,,,2019-05-23_22h56.32.446,Probabilistic Learning,3.1.0,60,,,,,,,,,1,0,6,3,1,5,hiragana4.xlsx,hiragana41.xlsx,,,,,,,,,,,,,,,,,m,0.113,2,0,92,7,1,91,k,c,A,C,c,,,
,,,,,,,,,,,,,,,,,2019-05-23_22h56.32.446,Probabilistic Learning,3.1.0,60,,,,,,,,,1,0,6,3,1,5,hiragana4.xlsx,hiragana41.xlsx,,,,,,,,,,,,,,,,,m,0.275,2,0,92,14,1,91,k,M,A,E,c,,,
,,,,,,,,,,,,,,,,,2019-05-23_22h56.32.446,Probabilistic Learning,3.1.0,60,,,,,,,,,1,0,6,3,1,5,hiragana4.xlsx,hiragana41.xlsx,,,,,,,,,,,,,,,,,m,0.229,2,0,92,26,1,91,R,i,B,D,,m,,
,,,,,,,,,,,,,,,,,2019-05-23_22h56.32.446,Probabilistic Learning,3.1.0,60,,,,,,,,,1,0,6,3,1,5,hiragana4.xlsx,hiragana41.xlsx,,,,,,,,,,,,,,,,,m,0.162,2,0,92,10,1,91,k,i,A,D,c,,,
,,,,,,,,,,,,,,,,,2019-05-23_22h56.32.446,Probabilistic Learning,3.1.0,60,,,,,,,,,1,0,6,3,1,5,hiragana4.xlsx,hiragana41.xlsx,,,,,,,,,,,,,,,,,m,0.178,2,0,92,9,1,91,c,k,C,A,m,,,
,,,,,,,,,,,,,,,,,2019-05-23_22h56.32.446,Probabilistic Learning,3.1.0,60,,,,,,,,,1,0,6,3,1,5,hiragana4.xlsx,hiragana41.xlsx,,,,,,,,,,,,,,,,,m,0.225,2,0,92,16,1,91,M,k,E,A,m,,,
,,,,,,,,,,,,,,,,,2019-05-23_22h56.32.446,Probabilistic Learning,3.1.0,60,,,,,,,,,1,0,6,3,1,5,hiragana4.xlsx,hiragana41.xlsx,,,,,,,,,,,,,,,,,m,0.059,2,0,92,40,1,91,c,n,c,f,,,,
,,,,,,,,,,,,,,,,,2019-05-23_22h56.32.446,Probabilistic Learning,3.1.0,60,,,,,,,,,1,0,6,3,1,5,hiragana4.xlsx,hiragana41.xlsx,,,,,,,,,,,,,,,,,m,1.295,2,0,92,6,1,91,k,c,A,C,c,,,
,,,,,,,,,,,,,,,,,2019-05-23_22h56.32.446,Probabilistic Learning,3.1.0,60,,,,,,,,,1,0,6,3,1,5,hiragana4.xlsx,hiragana41.xlsx,,,,,,,,,,,,,,,,,m,0.079,2,0,92,30,1,91,R,M,B,E,,m,,
,,,,,,,,,,,,,,,,,2019-05-23_22h56.32.446,Probabilistic Learning,3.1.0,60,,,,,,,,,1,0,6,3,1,5,hiragana4.xlsx,hiragana41.xlsx,,,,,,,,,,,,,,,,,m,0.193,2,0,92,33,1,91,M,R,E,B,,c,,
,,,,,,,,,,,,,,,,,2019-05-23_22h56.32.446,Probabilistic Learning,3.1.0,60,,,,,,,,,1,0,6,3,1,5,hiragana4.xlsx,hiragana41.xlsx,,,,,,,,,,,,,,,,,m,0.244,2,0,92,28,1,91,i,R,D,B,,c,,
,,,,,,,,,,,,,,,,,2019-05-23_22h56.32.446,Probabilistic Learning,3.1.0,60,,,,,,,,,1,0,6,3,1,5,hiragana4.xlsx,hiragana41.xlsx,,,,,,,,,,,,,,,,,m,0.195,2,0,92,27,1,91,R,i,B,D,,m,,
,,,,,,,,,,,,,,,,,2019-05-23_22h56.32.446,Probabilistic Learning,3.1.0,60,,,,,,,,,1,0,6,3,1,5,hiragana4.xlsx,hiragana41.xlsx,,,,,,,,,,,,,,,,,m,0.025,2,0,92,8,1,91,c,k,C,A,m,,,
,,,,,,,,,,,,,,,,,2019-05-23_22h56.32.446,Probabilistic Learning,3.1.0,60,,,,,,,,,1,0,6,3,1,5,hiragana4.xlsx,hiragana41.xlsx,,,,,,,,,,,,,,,,,m,0.146,2,0,92,18,1,91,k,n,A,F,c,,,
,,,,,,,,,,,,,,,,,2019-05-23_22h56.32.446,Probabilistic Learning,3.1.0,60,,,,,,,,,1,0,6,3,1,5,hiragana4.xlsx,hiragana41.xlsx,,,,,,,,,,,,,,,,,m,0.213,2,0,92,3,1,91,i,c,D,C,,,,
,,,,,,,,,,,,,,,,,2019-05-23_22h56.32.446,Probabilistic Learning,3.1.0,60,,,,,,,,,1,0,6,3,1,5,hiragana4.xlsx,hiragana41.xlsx,,,,,,,,,,,,,,,,,m,0.178,2,0,92,0,1,91,k,R,A,B,,,,
,,,,,,,,,,,,,,,,,2019-05-23_22h56.32.446,Probabilistic Learning,3.1.0,60,,,,,,,,,1,0,6,3,1,5,hiragana4.xlsx,hiragana41.xlsx,,,,,,,,,,,,,,,,,m,0.162,2,0,92,44,1,91,i,n,d,f,,,,
,,,,,,,,,,,,,,,,,2019-05-23_22h56.32.446,Probabilistic Learning,3.1.0,60,,,,,,,,,1,0,6,3,1,5,hiragana4.xlsx,hiragana41.xlsx,,,,,,,,,,,,,,,,,m,0.23,2,0,92,19,1,91,k,n,A,F,c,,,
,,,,,,,,,,,,,,,,,2019-05-23_22h56.32.446,Probabilistic Learning,3.1.0,60,,,,,,,,,1,0,6,3,1,5,hiragana4.xlsx,hiragana41.xlsx,,,,,,,,,,,,,,,,,m,0.277,2,0,92,34,1,91,R,n,B,F,,m,,
,,,,,,,,,,,,,,,,,2019-05-23_22h56.32.446,Probabilistic Learning,3.1.0,60,,,,,,,,,1,0,6,3,1,5,hiragana4.xlsx,hiragana41.xlsx,,,,,,,,,,,,,,,,,m,0.214,2,0,92,15,1,91,k,M,A,E,c,,,
,,,,,,,,,,,,,,,,,2019-05-23_22h56.32.446,Probabilistic Learning,3.1.0,60,,,,,,,,,1,0,6,3,1,5,hiragana4.xlsx,hiragana41.xlsx,,,,,,,,,,,,,,,,,m,0.295,2,0,92,29,1,91,i,R,D,B,,c,,
,,,,,,,,,,,,,,,,,2019-05-23_22h56.32.446,Probabilistic Learning,3.1.0,60,,,,,,,,,1,0,6,3,1,5,hiragana4.xlsx,hiragana41.xlsx,,,,,,,,,,,,,,,,,m,0.039,2,0,92,28,1,91,i,R,D,B,,c,,
,,,,,,,,,,,,,,,,,2019-05-23_22h56.32.446,Probabilistic Learning,3.1.0,60,,,,,,,,,1,0,6,3,1,5,hiragana4.xlsx,hiragana41.xlsx,,,,,,,,,,,,,,,,,m,0.308,2,0,92,41,1,91,n,c,f,c,,,,
,,,,,,,,,,,,,,,,,2019-05-23_22h56.32.446,Probabilistic Learning,3.1.0,60,,,,,,,,,1,0,6,3,1,5,hiragana4.xlsx,hiragana41.xlsx,,,,,,,,,,,,,,,,,m,0.06,2,0,92,11,1,91,k,i,A,D,c,,,
,,,,,,,,,,,,,,,,,2019-05-23_22h56.32.446,Probabilistic Learning,3.1.0,60,,,,,,,,,1,0,6,3,1,5,hiragana4.xlsx,hiragana41.xlsx,,,,,,,,,,,,,,,,,m,0.296,2,0,92,40,1,91,c,n,c,f,,,,
,,,,,,,,,,,,,,,,,2019-05-23_22h56.32.446,Probabilistic Learning,3.1.0,60,,,,,,,,,1,0,6,3,1,5,hiragana4.xlsx,hiragana41.xlsx,,,,,,,,,,,,,,,,,m,0.327,2,0,92,10,1,91,k,i,A,D,c,,,
,,,,,,,,,,,,,,,,,2019-05-23_22h56.32.446,Probabilistic Learning,3.1.0,60,,,,,,,,,1,0,6,3,1,5,hiragana4.xlsx,hiragana41.xlsx,,,,,,,,,,,,,,,,,m,0.196,2,0,92,24,1,91,c,R,C,B,,c,,
,,,,,,,,,,,,,,,,,2019-05-23_22h56.32.446,Probabilistic Learning,3.1.0,60,,,,,,,,,1,0,6,3,1,5,hiragana4.xlsx,hiragana41.xlsx,,,,,,,,,,,,,,,,,m,0.228,2,0,92,8,1,91,c,k,C,A,m,,,
,,,,,,,,,,,,,,,,,2019-05-23_22h56.32.446,Probabilistic Learning,3.1.0,60,,,,,,,,,1,0,6,3,1,5,hiragana4.xlsx,hiragana41.xlsx,,,,,,,,,,,,,,,,,m,0.277,2,0,92,25,1,91,c,R,C,B,,c,,
,,,,,,,,,,,,,,,,,2019-05-23_22h56.32.446,Probabilistic Learning,3.1.0,60,,,,,,,,,1,0,6,3,1,5,hiragana4.xlsx,hiragana41.xlsx,,,,,,,,,,,,,,,,,m,0.211,2,0,92,38,1,91,c,M,C,E,,,,
,,,,,,,,,,,,,,,,,2019-05-23_22h56.32.446,Probabilistic Learning,3.1.0,60,,,,,,,,,1,0,6,3,1,5,hiragana4.xlsx,hiragana41.xlsx,,,,,,,,,,,,,,,,,m,0.262,2,0,92,27,1,91,R,i,B,D,,m,,
,,,,,,,,,,,,,,,,,2019-05-23_22h56.32.446,Probabilistic Learning,3.1.0,60,,,,,,,,,1,0,6,3,1,5,hiragana4.xlsx,hiragana41.xlsx,,,,,,,,,,,,,,,,,m,0.013,2,0,92,12,1,91,i,k,D,A,m,,,
,,,,,,,,,,,,,,,,,2019-05-23_22h56.32.446,Probabilistic Learning,3.1.0,60,,,,,,,,,1,0,6,3,1,5,hiragana4.xlsx,hiragana41.xlsx,,,,,,,,,,,,,,,,,m,0.379,2,0,92,36,1,91,n,R,F,B,,c,,
,,,,,,,,,,,,,,,,,2019-05-23_22h56.32.446,Probabilistic Learning,3.1.0,60,,,,,,,,,1,0,6,3,1,5,hiragana4.xlsx,hiragana41.xlsx,,,,,,,,,,,,,,,,,m,0.31,2,0,92,21,1,91,n,k,F,A,m,,,
,,,,,,,,,,,,,,,,,2019-05-23_22h56.32.446,Probabilistic Learning,3.1.0,60,,,,,,,,,1,0,6,3,1,5,hiragana4.xlsx,hiragana41.xlsx,,,,,,,,,,,,,,,,,m,0.259,2,0,92,16,1,91,M,k,E,A,m,,,
,,,,,,,,,,,,,,,,,2019-05-23_22h56.32.446,Probabilistic Learning,3.1.0,60,,,,,,,,,1,0,6,3,1,5,hiragana4.xlsx,hiragana41.xlsx,,,,,,,,,,,,,,,,,m,0.196,2,0,92,1,1,91,R,k,B,A,,,,
,,,,,,,,,,,,,,,,,2019-05-23_22h56.32.446,Probabilistic Learning,3.1.0,60,,,,,,,,,1,0,6,3,1,5,hiragana4.xlsx,hiragana41.xlsx,,,,,,,,,,,,,,,,,m,0.145,2,0,92,34,1,91,R,n,B,F,,m,,
,,,,,,,,,,,,,,,,,2019-05-23_22h56.32.446,Probabilistic Learning,3.1.0,60,,,,,,,,,1,0,6,3,1,5,hiragana4.xlsx,hiragana41.xlsx,,,,,,,,,,,,,,,,,m,0.146,2,0,92,5,1,91,n,M,F,E,,,,
,,,,,,,,,,,,,,,,,2019-05-23_22h56.32.446,Probabilistic Learning,3.1.0,60,,,,,,,,,1,0,6,3,1,5,hiragana4.xlsx,hiragana41.xlsx,,,,,,,,,,,,,,,,,m,0.142,2,0,92,3,1,91,i,c,D,C,,,,
,,,,,,,,,,,,,,,,,2019-05-23_22h56.32.446,Probabilistic Learning,3.1.0,60,,,,,,,,,1,0,6,3,1,5,hiragana4.xlsx,hiragana41.xlsx,,,,,,,,,,,,,,,,,m,0.246,2,0,92,45,1,91,n,i,f,d,,,,
,,,,,,,,,,,,,,,,,2019-05-23_22h56.32.446,Probabilistic Learning,3.1.0,60,,,,,,,,,1,0,6,3,1,5,hiragana4.xlsx,hiragana41.xlsx,,,,,,,,,,,,,,,,,m,0.295,2,0,92,14,1,91,k,M,A,E,c,,,
,,,,,,,,,,,,,,,,,2019-05-23_22h56.32.446,Probabilistic Learning,3.1.0,60,,,,,,,,,1,0,6,3,1,5,hiragana4.xlsx,hiragana41.xlsx,,,,,,,,,,,,,,,,,m,0.262,2,0,92,26,1,91,R,i,B,D,,m,,
,,,,,,,,,,,,,,,,,2019-05-23_22h56.32.446,Probabilistic Learning,3.1.0,60,,,,,,,,,1,0,6,3,1,5,hiragana4.xlsx,hiragana41.xlsx,,,,,,,,,,,,,,,,,m,0.212,2,0,92,4,1,91,M,n,E,F,,,,
,,,,,,,,,,,,,,,,,2019-05-23_22h56.32.446,Probabilistic Learning,3.1.0,60,,,,,,,,,1,0,6,3,1,5,hiragana4.xlsx,hiragana41.xlsx,,,,,,,,,,,,,,,,,m,0.246,2,0,92,2,1,91,c,i,C,D,,,,
,,,,,,,,,,,,,,,,,2019-05-23_22h56.32.446,Probabilistic Learning,3.1.0,60,,,,,,,,,1,0,6,3,1,5,hiragana4.xlsx,hiragana41.xlsx,,,,,,,,,,,,,,,,,m,0.26,2,0,92,31,1,91,R,M,B,E,,m,,
,,,,,,,,,,,,,,,,,2019-05-23_22h56.32.446,Probabilistic Learning,3.1.0,60,,,,,,,,,1,0,6,3,1,5,hiragana4.xlsx,hiragana41.xlsx,,,,,,,,,,,,,,,,,m,0.195,2,0,92,15,1,91,k,M,A,E,c,,,
,,,,,,,,,,,,,,,,,2019-05-23_22h56.32.446,Probabilistic Learning,3.1.0,60,,,,,,,,,1,0,6,3,1,5,hiragana4.xlsx,hiragana41.xlsx,,,,,,,,,,,,,,,,,m,0.062,2,0,92,19,1,91,k,n,A,F,c,,,
,,,,,,,,,,,,,,,,,2019-05-23_22h56.32.446,Probabilistic Learning,3.1.0,60,,,,,,,,,1,0,6,3,1,5,hiragana4.xlsx,hiragana41.xlsx,,,,,,,,,,,,,,,,,m,0.094,2,0,92,37,1,91,n,R,F,B,,c,,
,,,,,,,,,,,,,,,,,2019-05-23_22h56.32.446,Probabilistic Learning,3.1.0,60,,,,,,,,,1,0,6,3,1,5,hiragana4.xlsx,hiragana41.xlsx,,,,,,,,,,,,,,,,,m,0.243,2,0,92,0,1,91,k,R,A,B,,,,
,,,,,,,,,,,,,,,,,2019-05-23_22h56.32.446,Probabilistic Learning,3.1.0,60,,,,,,,,,1,0,6,3,1,5,hiragana4.xlsx,hiragana41.xlsx,,,,,,,,,,,,,,,,,m,0.011,2,0,92,20,1,91,n,k,F,A,m,,,
,,,,,,,,,,,,,,,,,2019-05-23_22h56.32.446,Probabilistic Learning,3.1.0,60,,,,,,,,,1,0,6,3,1,5,hiragana4.xlsx,hiragana41.xlsx,,,,,,,,,,,,,,,,,m,0.379,2,0,92,13,1,91,i,k,D,A,m,,,
,,,,,,,,,,,,,,,,,2019-05-23_22h56.32.446,Probabilistic Learning,3.1.0,60,,,,,,,,,1,0,6,3,1,5,hiragana4.xlsx,hiragana41.xlsx,,,,,,,,,,,,,,,,,m,0.162,2,0,92,30,1,91,R,M,B,E,,m,,
,,,,,,,,,,,,,,,,,2019-05-23_22h56.32.446,Probabilistic Learning,3.1.0,60,,,,,,,,,1,0,6,3,1,5,hiragana4.xlsx,hiragana41.xlsx,,,,,,,,,,,,,,,,,m,0.295,2,0,92,39,1,91,M,c,e,c,,,,
,,,,,,,,,,,,,,,,,2019-05-23_22h56.32.446,Probabilistic Learning,3.1.0,60,,,,,,,,,1,0,6,3,1,5,hiragana4.xlsx,hiragana41.xlsx,,,,,,,,,,,,,,,,,m,0.111,2,0,92,33,1,91,M,R,E,B,,c,,
,,,,,,,,,,,,,,,,,2019-05-23_22h56.32.446,Probabilistic Learning,3.1.0,60,,,,,,,,,1,0,6,3,1,5,hiragana4.xlsx,hiragana41.xlsx,,,,,,,,,,,,,,,,,m,0.294,2,0,92,44,1,91,i,n,d,f,,,,
,,,,,,,,,,,,,,,,,2019-05-23_22h56.32.446,Probabilistic Learning,3.1.0,60,,,,,,,,,1,0,6,3,1,5,hiragana4.xlsx,hiragana41.xlsx,,,,,,,,,,,,,,,,,m,0.261,2,0,92,42,1,91,i,M,d,e,,,,
,,,,,,,,,,,,,,,,,2019-05-23_22h56.32.446,Probabilistic Learning,3.1.0,60,,,,,,,,,1,0,6,3,1,5,hiragana4.xlsx,hiragana41.xlsx,,,,,,,,,,,,,,,,,m,0.144,2,0,92,22,1,91,R,c,B,C,,m,,
,,,,,,,,,,,,,,,,,2019-05-23_22h56.32.446,Probabilistic Learning,3.1.0,60,,,,,,,,,1,0,6,3,1,5,hiragana4.xlsx,hiragana41.xlsx,,,,,,,,,,,,,,,,,m,0.361,2,0,92,9,1,91,c,k,C,A,m,,,
,,,,,,,,,,,,,,,,,2019-05-23_22h56.32.446,Probabilistic Learning,3.1.0,60,,,,,,,,,1,0,6,3,1,5,hiragana4.xlsx,hiragana41.xlsx,,,,,,,,,,,,,,,,,m,0.296,2,0,92,18,1,91,k,n,A,F,c,,,
,,,,,,,,,,,,,,,,,2019-05-23_22h56.32.446,Probabilistic Learning,3.1.0,60,,,,,,,,,1,0,6,3,1,5,hiragana4.xlsx,hiragana41.xlsx,,,,,,,,,,,,,,,,,m,0.327,2,0,92,17,1,91,M,k,E,A,m,,,
,,,,,,,,,,,,,,,,,2019-05-23_22h56.32.446,Probabilistic Learning,3.1.0,60,,,,,,,,,1,0,6,3,1,5,hiragana4.xlsx,hiragana41.xlsx,,,,,,,,,,,,,,,,,m,0.228,2,0,92,23,1,91,R,c,B,C,,m,,
,,,,,,,,,,,,,,,,,2019-05-23_22h56.32.446,Probabilistic Learning,3.1.0,60,,,,,,,,,1,0,6,3,1,5,hiragana4.xlsx,hiragana41.xlsx,,,,,,,,,,,,,,,,,m,0.228,2,0,92,35,1,91,R,n,B,F,,m,,
,,,,,,,,,,,,,,,,,2019-05-23_22h56.32.446,Probabilistic Learning,3.1.0,60,,,,,,,,,1,0,6,3,1,5,hiragana4.xlsx,hiragana41.xlsx,,,,,,,,,,,,,,,,,m,0.163,2,0,92,6,1,91,k,c,A,C,c,,,
,,,,,,,,,,,,,,,,,2019-05-23_22h56.32.446,Probabilistic Learning,3.1.0,60,,,,,,,,,1,0,6,3,1,5,hiragana4.xlsx,hiragana41.xlsx,,,,,,,,,,,,,,,,,m,0.227,2,0,92,7,1,91,k,c,A,C,c,,,
,,,,,,,,,,,,,,,,,2019-05-23_22h56.32.446,Probabilistic Learning,3.1.0,60,,,,,,,,,1,0,6,3,1,5,hiragana4.xlsx,hiragana41.xlsx,,,,,,,,,,,,,,,,,m,0.342,2,0,92,43,1,91,M,i,e,d,,,,
,,,,,,,,,,,,,,,,,2019-05-23_22h56.32.446,Probabilistic Learning,3.1.0,60,,,,,,,,,1,0,6,3,1,5,hiragana4.xlsx,hiragana41.xlsx,,,,,,,,,,,,,,,,,m,0.079,2,0,92,32,1,91,M,R,E,B,,c,,
,,,,,,,,,,,,,,,,,2019-05-23_22h56.32.446,Probabilistic Learning,3.1.0,60,,,,,,,,,1,0,6,3,1,5,hiragana4.xlsx,hiragana41.xlsx,,,,,,,,,,,,,,,,,,,,,,,,,,,,,,,space,3.239
