welc_resp.keys,welc_resp.rt,instr0_resp.keys,instr0_resp.rt,prep_resp.keys,prep_resp.corr,prep_resp.rt,preparation.thisRepN,preparation.thisTrialN,preparation.thisN,preparation.thisIndex,preparation.ran,preparation.order,letter10,letter20,corrAns0,participant,,date,expName,psychopyVersion,frameRate,outro_resp.keys,outro_resp.rt,instr1_resp.keys,instr1_resp.rt,resp.keys,resp.corr,resp.rt,letterMaster.thisRepN,letterMaster.thisTrialN,letterMaster.thisN,letterMaster.thisIndex,letterMaster.ran,letterMaster.order,letterset,letterset2,practice.thisRepN,practice.thisTrialN,practice.thisN,practice.thisIndex,practice.ran,practice.order,letter1,letter2,corrAns,letterA,letterC,letterE,instr2_resp.keys,instr2_resp.rt,instr3_resp.keys,instr3_resp.rt,test_resp.keys,test_resp.rt,test.thisRepN,test.thisTrialN,test.thisN,test.thisIndex,test.ran,test.order,letter3,letter4,letterA2,letterB2,pickA,avoidB,outro_resp2.keys,outro_resp2.rt
space,0.855,space,0.452,c,1,0.308,1,0,10,6,1,9,U,L,c,,,2019-05-23_19h05.03.611,Probabilistic Learning,3.1.0,60,,,,,,,,,,,,,,,,,,,,,,,,,,,,,,,,,,,,,,,,,,,,,,,
,,,,m,1,0.264,1,0,10,3,1,9,L,U,m,,,2019-05-23_19h05.03.611,Probabilistic Learning,3.1.0,60,,,,,,,,,,,,,,,,,,,,,,,,,,,,,,,,,,,,,,,,,,,,,,,
,,,,c,1,0.197,1,0,10,1,1,9,U,L,c,,,2019-05-23_19h05.03.611,Probabilistic Learning,3.1.0,60,,,,,,,,,,,,,,,,,,,,,,,,,,,,,,,,,,,,,,,,,,,,,,,
,,,,c,1,0.345,1,0,10,4,1,9,U,L,c,,,2019-05-23_19h05.03.611,Probabilistic Learning,3.1.0,60,,,,,,,,,,,,,,,,,,,,,,,,,,,,,,,,,,,,,,,,,,,,,,,
,,,,c,1,0.262,1,0,10,8,1,9,L,U,c,,,2019-05-23_19h05.03.611,Probabilistic Learning,3.1.0,60,,,,,,,,,,,,,,,,,,,,,,,,,,,,,,,,,,,,,,,,,,,,,,,
,,,,c,1,0.28,1,0,10,0,1,9,U,L,c,,,2019-05-23_19h05.03.611,Probabilistic Learning,3.1.0,60,,,,,,,,,,,,,,,,,,,,,,,,,,,,,,,,,,,,,,,,,,,,,,,
,,,,m,1,0.328,1,0,10,7,1,9,L,U,m,,,2019-05-23_19h05.03.611,Probabilistic Learning,3.1.0,60,,,,,,,,,,,,,,,,,,,,,,,,,,,,,,,,,,,,,,,,,,,,,,,
,,,,c,0,0.23,1,0,10,9,1,9,U,L,m,,,2019-05-23_19h05.03.611,Probabilistic Learning,3.1.0,60,,,,,,,,,,,,,,,,,,,,,,,,,,,,,,,,,,,,,,,,,,,,,,,
,,,,c,1,0.278,1,0,10,5,1,9,U,L,c,,,2019-05-23_19h05.03.611,Probabilistic Learning,3.1.0,60,,,,,,,,,,,,,,,,,,,,,,,,,,,,,,,,,,,,,,,,,,,,,,,
,,,,m,1,0.313,1,0,10,2,1,9,L,U,m,,,2019-05-23_19h05.03.611,Probabilistic Learning,3.1.0,60,,,,,,,,,,,,,,,,,,,,,,,,,,,,,,,,,,,,,,,,,,,,,,,
,,,,,,,,,,,,,,,,,,2019-05-23_19h05.03.611,Probabilistic Learning,3.1.0,60,space,0.562,space,0.501,c,0,0.395,1,0,6,4,1,5,hiragana5.xlsx,hiragana51.xlsx,6,0,180,15,1,179,G,h,m,,m,,,,,,,,,,,,,,,,,,,,,
,,,,,,,,,,,,,,,,,,2019-05-23_19h05.03.611,Probabilistic Learning,3.1.0,60,,,,,c,0,0.297,1,0,6,4,1,5,hiragana5.xlsx,hiragana51.xlsx,6,0,180,19,1,179,h,G,m,,c,,,,,,,,,,,,,,,,,,,,,
,,,,,,,,,,,,,,,,,,2019-05-23_19h05.03.611,Probabilistic Learning,3.1.0,60,,,,,m,0,0.331,1,0,6,4,1,5,hiragana5.xlsx,hiragana51.xlsx,6,0,180,18,1,179,G,h,c,,m,,,,,,,,,,,,,,,,,,,,,
,,,,,,,,,,,,,,,,,,2019-05-23_19h05.03.611,Probabilistic Learning,3.1.0,60,,,,,c,1,0.263,1,0,6,4,1,5,hiragana5.xlsx,hiragana51.xlsx,6,0,180,10,1,179,h,G,c,,c,,,,,,,,,,,,,,,,,,,,,
,,,,,,,,,,,,,,,,,,2019-05-23_19h05.03.611,Probabilistic Learning,3.1.0,60,,,,,c,1,0.394,1,0,6,4,1,5,hiragana5.xlsx,hiragana51.xlsx,6,0,180,21,1,179,j,S,c,,,c,,,,,,,,,,,,,,,,,,,,
,,,,,,,,,,,,,,,,,,2019-05-23_19h05.03.611,Probabilistic Learning,3.1.0,60,,,,,c,1,0.445,1,0,6,4,1,5,hiragana5.xlsx,hiragana51.xlsx,6,0,180,1,1,179,Q,B,c,c,,,,,,,,,,,,,,,,,,,,,,
,,,,,,,,,,,,,,,,,,2019-05-23_19h05.03.611,Probabilistic Learning,3.1.0,60,,,,,m,1,0.43,1,0,6,4,1,5,hiragana5.xlsx,hiragana51.xlsx,6,0,180,7,1,179,B,Q,m,m,,,,,,,,,,,,,,,,,,,,,,
,,,,,,,,,,,,,,,,,,2019-05-23_19h05.03.611,Probabilistic Learning,3.1.0,60,,,,,m,0,0.463,1,0,6,4,1,5,hiragana5.xlsx,hiragana51.xlsx,6,0,180,29,1,179,S,j,c,,,m,,,,,,,,,,,,,,,,,,,,
,,,,,,,,,,,,,,,,,,2019-05-23_19h05.03.611,Probabilistic Learning,3.1.0,60,,,,,m,1,0.462,1,0,6,4,1,5,hiragana5.xlsx,hiragana51.xlsx,6,0,180,16,1,179,G,h,m,,m,,,,,,,,,,,,,,,,,,,,,
,,,,,,,,,,,,,,,,,,2019-05-23_19h05.03.611,Probabilistic Learning,3.1.0,60,,,,,c,1,0.313,1,0,6,4,1,5,hiragana5.xlsx,hiragana51.xlsx,6,0,180,2,1,179,Q,B,c,c,,,,,,,,,,,,,,,,,,,,,,
,,,,,,,,,,,,,,,,,,2019-05-23_19h05.03.611,Probabilistic Learning,3.1.0,60,,,,,c,1,0.38,1,0,6,4,1,5,hiragana5.xlsx,hiragana51.xlsx,6,0,180,13,1,179,h,G,c,,c,,,,,,,,,,,,,,,,,,,,,
,,,,,,,,,,,,,,,,,,2019-05-23_19h05.03.611,Probabilistic Learning,3.1.0,60,,,,,m,1,0.38,1,0,6,4,1,5,hiragana5.xlsx,hiragana51.xlsx,6,0,180,25,1,179,S,j,m,,,m,,,,,,,,,,,,,,,,,,,,
,,,,,,,,,,,,,,,,,,2019-05-23_19h05.03.611,Probabilistic Learning,3.1.0,60,,,,,m,1,0.347,1,0,6,4,1,5,hiragana5.xlsx,hiragana51.xlsx,6,0,180,23,1,179,S,j,m,,,m,,,,,,,,,,,,,,,,,,,,
,,,,,,,,,,,,,,,,,,2019-05-23_19h05.03.611,Probabilistic Learning,3.1.0,60,,,,,c,1,0.329,1,0,6,4,1,5,hiragana5.xlsx,hiragana51.xlsx,6,0,180,17,1,179,G,h,c,,m,,,,,,,,,,,,,,,,,,,,,
,,,,,,,,,,,,,,,,,,2019-05-23_19h05.03.611,Probabilistic Learning,3.1.0,60,,,,,m,1,0.513,1,0,6,4,1,5,hiragana5.xlsx,hiragana51.xlsx,6,0,180,6,1,179,B,Q,m,m,,,,,,,,,,,,,,,,,,,,,,
,,,,,,,,,,,,,,,,,,2019-05-23_19h05.03.611,Probabilistic Learning,3.1.0,60,,,,,m,0,0.43,1,0,6,4,1,5,hiragana5.xlsx,hiragana51.xlsx,6,0,180,9,1,179,B,Q,c,m,,,,,,,,,,,,,,,,,,,,,,
,,,,,,,,,,,,,,,,,,2019-05-23_19h05.03.611,Probabilistic Learning,3.1.0,60,,,,,c,0,0.397,1,0,6,4,1,5,hiragana5.xlsx,hiragana51.xlsx,6,0,180,8,1,179,Q,B,m,c,,,,,,,,,,,,,,,,,,,,,,
,,,,,,,,,,,,,,,,,,2019-05-23_19h05.03.611,Probabilistic Learning,3.1.0,60,,,,,c,1,0.364,1,0,6,4,1,5,hiragana5.xlsx,hiragana51.xlsx,6,0,180,3,1,179,Q,B,c,c,,,,,,,,,,,,,,,,,,,,,,
,,,,,,,,,,,,,,,,,,2019-05-23_19h05.03.611,Probabilistic Learning,3.1.0,60,,,,,m,1,0.364,1,0,6,4,1,5,hiragana5.xlsx,hiragana51.xlsx,6,0,180,5,1,179,B,Q,m,m,,,,,,,,,,,,,,,,,,,,,,
,,,,,,,,,,,,,,,,,,2019-05-23_19h05.03.611,Probabilistic Learning,3.1.0,60,,,,,c,0,0.497,1,0,6,4,1,5,hiragana5.xlsx,hiragana51.xlsx,6,0,180,27,1,179,j,S,m,,,c,,,,,,,,,,,,,,,,,,,,
,,,,,,,,,,,,,,,,,,2019-05-23_19h05.03.611,Probabilistic Learning,3.1.0,60,,,,,c,1,0.514,1,0,6,4,1,5,hiragana5.xlsx,hiragana51.xlsx,6,0,180,11,1,179,h,G,c,,c,,,,,,,,,,,,,,,,,,,,,
,,,,,,,,,,,,,,,,,,2019-05-23_19h05.03.611,Probabilistic Learning,3.1.0,60,,,,,m,1,0.447,1,0,6,4,1,5,hiragana5.xlsx,hiragana51.xlsx,6,0,180,4,1,179,B,Q,m,m,,,,,,,,,,,,,,,,,,,,,,
,,,,,,,,,,,,,,,,,,2019-05-23_19h05.03.611,Probabilistic Learning,3.1.0,60,,,,,c,1,0.364,1,0,6,4,1,5,hiragana5.xlsx,hiragana51.xlsx,6,0,180,0,1,179,Q,B,c,c,,,,,,,,,,,,,,,,,,,,,,
,,,,,,,,,,,,,,,,,,2019-05-23_19h05.03.611,Probabilistic Learning,3.1.0,60,,,,,c,1,0.38,1,0,6,4,1,5,hiragana5.xlsx,hiragana51.xlsx,6,0,180,12,1,179,h,G,c,,c,,,,,,,,,,,,,,,,,,,,,
,,,,,,,,,,,,,,,,,,2019-05-23_19h05.03.611,Probabilistic Learning,3.1.0,60,,,,,c,1,0.379,1,0,6,4,1,5,hiragana5.xlsx,hiragana51.xlsx,6,0,180,20,1,179,j,S,c,,,c,,,,,,,,,,,,,,,,,,,,
,,,,,,,,,,,,,,,,,,2019-05-23_19h05.03.611,Probabilistic Learning,3.1.0,60,,,,,m,0,0.412,1,0,6,4,1,5,hiragana5.xlsx,hiragana51.xlsx,6,0,180,28,1,179,S,j,c,,,m,,,,,,,,,,,,,,,,,,,,
,,,,,,,,,,,,,,,,,,2019-05-23_19h05.03.611,Probabilistic Learning,3.1.0,60,,,,,c,0,0.414,1,0,6,4,1,5,hiragana5.xlsx,hiragana51.xlsx,6,0,180,14,1,179,G,h,m,,m,,,,,,,,,,,,,,,,,,,,,
,,,,,,,,,,,,,,,,,,2019-05-23_19h05.03.611,Probabilistic Learning,3.1.0,60,,,,,m,1,0.413,1,0,6,4,1,5,hiragana5.xlsx,hiragana51.xlsx,6,0,180,24,1,179,S,j,m,,,m,,,,,,,,,,,,,,,,,,,,
,,,,,,,,,,,,,,,,,,2019-05-23_19h05.03.611,Probabilistic Learning,3.1.0,60,,,,,c,1,0.414,1,0,6,4,1,5,hiragana5.xlsx,hiragana51.xlsx,6,0,180,22,1,179,j,S,c,,,c,,,,,,,,,,,,,,,,,,,,
,,,,,,,,,,,,,,,,,,2019-05-23_19h05.03.611,Probabilistic Learning,3.1.0,60,,,,,c,0,0.397,1,0,6,4,1,5,hiragana5.xlsx,hiragana51.xlsx,6,0,180,26,1,179,j,S,m,,,c,,,,,,,,,,,,,,,,,,,,
,,,,,,,,,,,,,,,,,,2019-05-23_19h05.03.611,Probabilistic Learning,3.1.0,60,,,,,c,0,0.36,1,0,6,4,1,5,hiragana5.xlsx,hiragana51.xlsx,6,0,180,27,1,179,j,S,m,,,c,,,,,,,,,,,,,,,,,,,,
,,,,,,,,,,,,,,,,,,2019-05-23_19h05.03.611,Probabilistic Learning,3.1.0,60,,,,,c,1,0.379,1,0,6,4,1,5,hiragana5.xlsx,hiragana51.xlsx,6,0,180,12,1,179,h,G,c,,c,,,,,,,,,,,,,,,,,,,,,
,,,,,,,,,,,,,,,,,,2019-05-23_19h05.03.611,Probabilistic Learning,3.1.0,60,,,,,c,1,0.348,1,0,6,4,1,5,hiragana5.xlsx,hiragana51.xlsx,6,0,180,10,1,179,h,G,c,,c,,,,,,,,,,,,,,,,,,,,,
,,,,,,,,,,,,,,,,,,2019-05-23_19h05.03.611,Probabilistic Learning,3.1.0,60,,,,,c,0,0.329,1,0,6,4,1,5,hiragana5.xlsx,hiragana51.xlsx,6,0,180,19,1,179,h,G,m,,c,,,,,,,,,,,,,,,,,,,,,
,,,,,,,,,,,,,,,,,,2019-05-23_19h05.03.611,Probabilistic Learning,3.1.0,60,,,,,m,0,0.347,1,0,6,4,1,5,hiragana5.xlsx,hiragana51.xlsx,6,0,180,17,1,179,G,h,c,,m,,,,,,,,,,,,,,,,,,,,,
,,,,,,,,,,,,,,,,,,2019-05-23_19h05.03.611,Probabilistic Learning,3.1.0,60,,,,,c,1,0.312,1,0,6,4,1,5,hiragana5.xlsx,hiragana51.xlsx,6,0,180,13,1,179,h,G,c,,c,,,,,,,,,,,,,,,,,,,,,
,,,,,,,,,,,,,,,,,,2019-05-23_19h05.03.611,Probabilistic Learning,3.1.0,60,,,,,c,1,0.529,1,0,6,4,1,5,hiragana5.xlsx,hiragana51.xlsx,6,0,180,20,1,179,j,S,c,,,c,,,,,,,,,,,,,,,,,,,,
,,,,,,,,,,,,,,,,,,2019-05-23_19h05.03.611,Probabilistic Learning,3.1.0,60,,,,,m,0,0.362,1,0,6,4,1,5,hiragana5.xlsx,hiragana51.xlsx,6,0,180,9,1,179,B,Q,c,m,,,,,,,,,,,,,,,,,,,,,,
,,,,,,,,,,,,,,,,,,2019-05-23_19h05.03.611,Probabilistic Learning,3.1.0,60,,,,,c,1,0.38,1,0,6,4,1,5,hiragana5.xlsx,hiragana51.xlsx,6,0,180,2,1,179,Q,B,c,c,,,,,,,,,,,,,,,,,,,,,,
,,,,,,,,,,,,,,,,,,2019-05-23_19h05.03.611,Probabilistic Learning,3.1.0,60,,,,,m,1,0.365,1,0,6,4,1,5,hiragana5.xlsx,hiragana51.xlsx,6,0,180,23,1,179,S,j,m,,,m,,,,,,,,,,,,,,,,,,,,
,,,,,,,,,,,,,,,,,,2019-05-23_19h05.03.611,Probabilistic Learning,3.1.0,60,,,,,c,1,0.381,1,0,6,4,1,5,hiragana5.xlsx,hiragana51.xlsx,6,0,180,1,1,179,Q,B,c,c,,,,,,,,,,,,,,,,,,,,,,
,,,,,,,,,,,,,,,,,,2019-05-23_19h05.03.611,Probabilistic Learning,3.1.0,60,,,,,c,1,0.414,1,0,6,4,1,5,hiragana5.xlsx,hiragana51.xlsx,6,0,180,22,1,179,j,S,c,,,c,,,,,,,,,,,,,,,,,,,,
,,,,,,,,,,,,,,,,,,2019-05-23_19h05.03.611,Probabilistic Learning,3.1.0,60,,,,,c,0,0.365,1,0,6,4,1,5,hiragana5.xlsx,hiragana51.xlsx,6,0,180,8,1,179,Q,B,m,c,,,,,,,,,,,,,,,,,,,,,,
,,,,,,,,,,,,,,,,,,2019-05-23_19h05.03.611,Probabilistic Learning,3.1.0,60,,,,,m,1,0.379,1,0,6,4,1,5,hiragana5.xlsx,hiragana51.xlsx,6,0,180,5,1,179,B,Q,m,m,,,,,,,,,,,,,,,,,,,,,,
,,,,,,,,,,,,,,,,,,2019-05-23_19h05.03.611,Probabilistic Learning,3.1.0,60,,,,,m,1,0.38,1,0,6,4,1,5,hiragana5.xlsx,hiragana51.xlsx,6,0,180,24,1,179,S,j,m,,,m,,,,,,,,,,,,,,,,,,,,
,,,,,,,,,,,,,,,,,,2019-05-23_19h05.03.611,Probabilistic Learning,3.1.0,60,,,,,m,1,0.395,1,0,6,4,1,5,hiragana5.xlsx,hiragana51.xlsx,6,0,180,15,1,179,G,h,m,,m,,,,,,,,,,,,,,,,,,,,,
,,,,,,,,,,,,,,,,,,2019-05-23_19h05.03.611,Probabilistic Learning,3.1.0,60,,,,,c,0,0.347,1,0,6,4,1,5,hiragana5.xlsx,hiragana51.xlsx,6,0,180,26,1,179,j,S,m,,,c,,,,,,,,,,,,,,,,,,,,
,,,,,,,,,,,,,,,,,,2019-05-23_19h05.03.611,Probabilistic Learning,3.1.0,60,,,,,m,1,0.364,1,0,6,4,1,5,hiragana5.xlsx,hiragana51.xlsx,6,0,180,16,1,179,G,h,m,,m,,,,,,,,,,,,,,,,,,,,,
,,,,,,,,,,,,,,,,,,2019-05-23_19h05.03.611,Probabilistic Learning,3.1.0,60,,,,,m,0,0.362,1,0,6,4,1,5,hiragana5.xlsx,hiragana51.xlsx,6,0,180,18,1,179,G,h,c,,m,,,,,,,,,,,,,,,,,,,,,
,,,,,,,,,,,,,,,,,,2019-05-23_19h05.03.611,Probabilistic Learning,3.1.0,60,,,,,c,1,0.331,1,0,6,4,1,5,hiragana5.xlsx,hiragana51.xlsx,6,0,180,11,1,179,h,G,c,,c,,,,,,,,,,,,,,,,,,,,,
,,,,,,,,,,,,,,,,,,2019-05-23_19h05.03.611,Probabilistic Learning,3.1.0,60,,,,,m,0,0.362,1,0,6,4,1,5,hiragana5.xlsx,hiragana51.xlsx,6,0,180,28,1,179,S,j,c,,,m,,,,,,,,,,,,,,,,,,,,
,,,,,,,,,,,,,,,,,,2019-05-23_19h05.03.611,Probabilistic Learning,3.1.0,60,,,,,m,1,0.362,1,0,6,4,1,5,hiragana5.xlsx,hiragana51.xlsx,6,0,180,25,1,179,S,j,m,,,m,,,,,,,,,,,,,,,,,,,,
,,,,,,,,,,,,,,,,,,2019-05-23_19h05.03.611,Probabilistic Learning,3.1.0,60,,,,,m,1,0.347,1,0,6,4,1,5,hiragana5.xlsx,hiragana51.xlsx,6,0,180,4,1,179,B,Q,m,m,,,,,,,,,,,,,,,,,,,,,,
,,,,,,,,,,,,,,,,,,2019-05-23_19h05.03.611,Probabilistic Learning,3.1.0,60,,,,,c,1,0.413,1,0,6,4,1,5,hiragana5.xlsx,hiragana51.xlsx,6,0,180,3,1,179,Q,B,c,c,,,,,,,,,,,,,,,,,,,,,,
,,,,,,,,,,,,,,,,,,2019-05-23_19h05.03.611,Probabilistic Learning,3.1.0,60,,,,,c,1,0.414,1,0,6,4,1,5,hiragana5.xlsx,hiragana51.xlsx,6,0,180,21,1,179,j,S,c,,,c,,,,,,,,,,,,,,,,,,,,
,,,,,,,,,,,,,,,,,,2019-05-23_19h05.03.611,Probabilistic Learning,3.1.0,60,,,,,m,0,0.348,1,0,6,4,1,5,hiragana5.xlsx,hiragana51.xlsx,6,0,180,29,1,179,S,j,c,,,m,,,,,,,,,,,,,,,,,,,,
,,,,,,,,,,,,,,,,,,2019-05-23_19h05.03.611,Probabilistic Learning,3.1.0,60,,,,,c,1,0.313,1,0,6,4,1,5,hiragana5.xlsx,hiragana51.xlsx,6,0,180,0,1,179,Q,B,c,c,,,,,,,,,,,,,,,,,,,,,,
,,,,,,,,,,,,,,,,,,2019-05-23_19h05.03.611,Probabilistic Learning,3.1.0,60,,,,,m,1,0.378,1,0,6,4,1,5,hiragana5.xlsx,hiragana51.xlsx,6,0,180,7,1,179,B,Q,m,m,,,,,,,,,,,,,,,,,,,,,,
,,,,,,,,,,,,,,,,,,2019-05-23_19h05.03.611,Probabilistic Learning,3.1.0,60,,,,,c,0,0.297,1,0,6,4,1,5,hiragana5.xlsx,hiragana51.xlsx,6,0,180,6,1,179,B,Q,m,m,,,,,,,,,,,,,,,,,,,,,,
,,,,,,,,,,,,,,,,,,2019-05-23_19h05.03.611,Probabilistic Learning,3.1.0,60,,,,,m,1,0.462,1,0,6,4,1,5,hiragana5.xlsx,hiragana51.xlsx,,,,,,,,,,,,,space,0.627,space,0.474,m,0.413,2,0,92,1,1,91,B,Q,B,A,,,,
,,,,,,,,,,,,,,,,,,2019-05-23_19h05.03.611,Probabilistic Learning,3.1.0,60,,,,,,,,1,0,6,4,1,5,hiragana5.xlsx,hiragana51.xlsx,,,,,,,,,,,,,,,,,m,0.197,2,0,92,38,1,91,h,j,C,E,,,,
,,,,,,,,,,,,,,,,,,2019-05-23_19h05.03.611,Probabilistic Learning,3.1.0,60,,,,,,,,1,0,6,4,1,5,hiragana5.xlsx,hiragana51.xlsx,,,,,,,,,,,,,,,,,m,0.23,2,0,92,44,1,91,G,S,d,f,,,,
,,,,,,,,,,,,,,,,,,2019-05-23_19h05.03.611,Probabilistic Learning,3.1.0,60,,,,,,,,1,0,6,4,1,5,hiragana5.xlsx,hiragana51.xlsx,,,,,,,,,,,,,,,,,c,0.198,2,0,92,10,1,91,Q,G,A,D,c,,,
,,,,,,,,,,,,,,,,,,2019-05-23_19h05.03.611,Probabilistic Learning,3.1.0,60,,,,,,,,1,0,6,4,1,5,hiragana5.xlsx,hiragana51.xlsx,,,,,,,,,,,,,,,,,c,0.195,2,0,92,30,1,91,B,j,B,E,,m,,
,,,,,,,,,,,,,,,,,,2019-05-23_19h05.03.611,Probabilistic Learning,3.1.0,60,,,,,,,,1,0,6,4,1,5,hiragana5.xlsx,hiragana51.xlsx,,,,,,,,,,,,,,,,,c,0.03,2,0,92,5,1,91,S,j,F,E,,,,
,,,,,,,,,,,,,,,,,,2019-05-23_19h05.03.611,Probabilistic Learning,3.1.0,60,,,,,,,,1,0,6,4,1,5,hiragana5.xlsx,hiragana51.xlsx,,,,,,,,,,,,,,,,,m,0.313,2,0,92,34,1,91,B,S,B,F,,m,,
,,,,,,,,,,,,,,,,,,2019-05-23_19h05.03.611,Probabilistic Learning,3.1.0,60,,,,,,,,1,0,6,4,1,5,hiragana5.xlsx,hiragana51.xlsx,,,,,,,,,,,,,,,,,m,0.228,2,0,92,2,1,91,h,G,C,D,,,,
,,,,,,,,,,,,,,,,,,2019-05-23_19h05.03.611,Probabilistic Learning,3.1.0,60,,,,,,,,1,0,6,4,1,5,hiragana5.xlsx,hiragana51.xlsx,,,,,,,,,,,,,,,,,m,0.18,2,0,92,43,1,91,j,G,e,d,,,,
,,,,,,,,,,,,,,,,,,2019-05-23_19h05.03.611,Probabilistic Learning,3.1.0,60,,,,,,,,1,0,6,4,1,5,hiragana5.xlsx,hiragana51.xlsx,,,,,,,,,,,,,,,,,c,0.23,2,0,92,4,1,91,j,S,E,F,,,,
,,,,,,,,,,,,,,,,,,2019-05-23_19h05.03.611,Probabilistic Learning,3.1.0,60,,,,,,,,1,0,6,4,1,5,hiragana5.xlsx,hiragana51.xlsx,,,,,,,,,,,,,,,,,c,0.114,2,0,92,7,1,91,Q,h,A,C,c,,,
,,,,,,,,,,,,,,,,,,2019-05-23_19h05.03.611,Probabilistic Learning,3.1.0,60,,,,,,,,1,0,6,4,1,5,hiragana5.xlsx,hiragana51.xlsx,,,,,,,,,,,,,,,,,m,0.214,2,0,92,18,1,91,Q,S,A,F,c,,,
,,,,,,,,,,,,,,,,,,2019-05-23_19h05.03.611,Probabilistic Learning,3.1.0,60,,,,,,,,1,0,6,4,1,5,hiragana5.xlsx,hiragana51.xlsx,,,,,,,,,,,,,,,,,m,0.347,2,0,92,42,1,91,G,j,d,e,,,,
,,,,,,,,,,,,,,,,,,2019-05-23_19h05.03.611,Probabilistic Learning,3.1.0,60,,,,,,,,1,0,6,4,1,5,hiragana5.xlsx,hiragana51.xlsx,,,,,,,,,,,,,,,,,m,0.265,2,0,92,29,1,91,G,B,D,B,,c,,
,,,,,,,,,,,,,,,,,,2019-05-23_19h05.03.611,Probabilistic Learning,3.1.0,60,,,,,,,,1,0,6,4,1,5,hiragana5.xlsx,hiragana51.xlsx,,,,,,,,,,,,,,,,,m,0.229,2,0,92,25,1,91,h,B,C,B,,c,,
,,,,,,,,,,,,,,,,,,2019-05-23_19h05.03.611,Probabilistic Learning,3.1.0,60,,,,,,,,1,0,6,4,1,5,hiragana5.xlsx,hiragana51.xlsx,,,,,,,,,,,,,,,,,c,0.229,2,0,92,27,1,91,B,G,B,D,,m,,
,,,,,,,,,,,,,,,,,,2019-05-23_19h05.03.611,Probabilistic Learning,3.1.0,60,,,,,,,,1,0,6,4,1,5,hiragana5.xlsx,hiragana51.xlsx,,,,,,,,,,,,,,,,,c,0.196,2,0,92,9,1,91,h,Q,C,A,m,,,
,,,,,,,,,,,,,,,,,,2019-05-23_19h05.03.611,Probabilistic Learning,3.1.0,60,,,,,,,,1,0,6,4,1,5,hiragana5.xlsx,hiragana51.xlsx,,,,,,,,,,,,,,,,,m,0.079,2,0,92,13,1,91,G,Q,D,A,m,,,
,,,,,,,,,,,,,,,,,,2019-05-23_19h05.03.611,Probabilistic Learning,3.1.0,60,,,,,,,,1,0,6,4,1,5,hiragana5.xlsx,hiragana51.xlsx,,,,,,,,,,,,,,,,,c,0.197,2,0,92,35,1,91,B,S,B,F,,m,,
,,,,,,,,,,,,,,,,,,2019-05-23_19h05.03.611,Probabilistic Learning,3.1.0,60,,,,,,,,1,0,6,4,1,5,hiragana5.xlsx,hiragana51.xlsx,,,,,,,,,,,,,,,,,c,0.362,2,0,92,20,1,91,S,Q,F,A,m,,,
,,,,,,,,,,,,,,,,,,2019-05-23_19h05.03.611,Probabilistic Learning,3.1.0,60,,,,,,,,1,0,6,4,1,5,hiragana5.xlsx,hiragana51.xlsx,,,,,,,,,,,,,,,,,m,0.33,2,0,92,16,1,91,j,Q,E,A,m,,,
,,,,,,,,,,,,,,,,,,2019-05-23_19h05.03.611,Probabilistic Learning,3.1.0,60,,,,,,,,1,0,6,4,1,5,hiragana5.xlsx,hiragana51.xlsx,,,,,,,,,,,,,,,,,m,0.181,2,0,92,28,1,91,G,B,D,B,,c,,
,,,,,,,,,,,,,,,,,,2019-05-23_19h05.03.611,Probabilistic Learning,3.1.0,60,,,,,,,,1,0,6,4,1,5,hiragana5.xlsx,hiragana51.xlsx,,,,,,,,,,,,,,,,,m,0.23,2,0,92,33,1,91,j,B,E,B,,c,,
,,,,,,,,,,,,,,,,,,2019-05-23_19h05.03.611,Probabilistic Learning,3.1.0,60,,,,,,,,1,0,6,4,1,5,hiragana5.xlsx,hiragana51.xlsx,,,,,,,,,,,,,,,,,c,0.329,2,0,92,17,1,91,j,Q,E,A,m,,,
,,,,,,,,,,,,,,,,,,2019-05-23_19h05.03.611,Probabilistic Learning,3.1.0,60,,,,,,,,1,0,6,4,1,5,hiragana5.xlsx,hiragana51.xlsx,,,,,,,,,,,,,,,,,c,0.228,2,0,92,37,1,91,S,B,F,B,,c,,
,,,,,,,,,,,,,,,,,,2019-05-23_19h05.03.611,Probabilistic Learning,3.1.0,60,,,,,,,,1,0,6,4,1,5,hiragana5.xlsx,hiragana51.xlsx,,,,,,,,,,,,,,,,,m,0.012,2,0,92,41,1,91,S,h,f,c,,,,
,,,,,,,,,,,,,,,,,,2019-05-23_19h05.03.611,Probabilistic Learning,3.1.0,60,,,,,,,,1,0,6,4,1,5,hiragana5.xlsx,hiragana51.xlsx,,,,,,,,,,,,,,,,,c,0.23,2,0,92,26,1,91,B,G,B,D,,m,,
,,,,,,,,,,,,,,,,,,2019-05-23_19h05.03.611,Probabilistic Learning,3.1.0,60,,,,,,,,1,0,6,4,1,5,hiragana5.xlsx,hiragana51.xlsx,,,,,,,,,,,,,,,,,c,0.229,2,0,92,19,1,91,Q,S,A,F,c,,,
,,,,,,,,,,,,,,,,,,2019-05-23_19h05.03.611,Probabilistic Learning,3.1.0,60,,,,,,,,1,0,6,4,1,5,hiragana5.xlsx,hiragana51.xlsx,,,,,,,,,,,,,,,,,c,0.114,2,0,92,23,1,91,B,h,B,C,,m,,
,,,,,,,,,,,,,,,,,,2019-05-23_19h05.03.611,Probabilistic Learning,3.1.0,60,,,,,,,,1,0,6,4,1,5,hiragana5.xlsx,hiragana51.xlsx,,,,,,,,,,,,,,,,,m,0.279,2,0,92,6,1,91,Q,h,A,C,c,,,
,,,,,,,,,,,,,,,,,,2019-05-23_19h05.03.611,Probabilistic Learning,3.1.0,60,,,,,,,,1,0,6,4,1,5,hiragana5.xlsx,hiragana51.xlsx,,,,,,,,,,,,,,,,,m,0.097,2,0,92,21,1,91,S,Q,F,A,m,,,
,,,,,,,,,,,,,,,,,,2019-05-23_19h05.03.611,Probabilistic Learning,3.1.0,60,,,,,,,,1,0,6,4,1,5,hiragana5.xlsx,hiragana51.xlsx,,,,,,,,,,,,,,,,,m,0.247,2,0,92,40,1,91,h,S,c,f,,,,
,,,,,,,,,,,,,,,,,,2019-05-23_19h05.03.611,Probabilistic Learning,3.1.0,60,,,,,,,,1,0,6,4,1,5,hiragana5.xlsx,hiragana51.xlsx,,,,,,,,,,,,,,,,,c,0.263,2,0,92,45,1,91,S,G,f,d,,,,
,,,,,,,,,,,,,,,,,,2019-05-23_19h05.03.611,Probabilistic Learning,3.1.0,60,,,,,,,,1,0,6,4,1,5,hiragana5.xlsx,hiragana51.xlsx,,,,,,,,,,,,,,,,,c,0.246,2,0,92,12,1,91,G,Q,D,A,m,,,
,,,,,,,,,,,,,,,,,,2019-05-23_19h05.03.611,Probabilistic Learning,3.1.0,60,,,,,,,,1,0,6,4,1,5,hiragana5.xlsx,hiragana51.xlsx,,,,,,,,,,,,,,,,,c,0.245,2,0,92,3,1,91,G,h,D,C,,,,
,,,,,,,,,,,,,,,,,,2019-05-23_19h05.03.611,Probabilistic Learning,3.1.0,60,,,,,,,,1,0,6,4,1,5,hiragana5.xlsx,hiragana51.xlsx,,,,,,,,,,,,,,,,,c,0.281,2,0,92,0,1,91,Q,B,A,B,,,,
,,,,,,,,,,,,,,,,,,2019-05-23_19h05.03.611,Probabilistic Learning,3.1.0,60,,,,,,,,1,0,6,4,1,5,hiragana5.xlsx,hiragana51.xlsx,,,,,,,,,,,,,,,,,c,0.296,2,0,92,39,1,91,j,h,e,c,,,,
,,,,,,,,,,,,,,,,,,2019-05-23_19h05.03.611,Probabilistic Learning,3.1.0,60,,,,,,,,1,0,6,4,1,5,hiragana5.xlsx,hiragana51.xlsx,,,,,,,,,,,,,,,,,m,0.214,2,0,92,22,1,91,B,h,B,C,,m,,
,,,,,,,,,,,,,,,,,,2019-05-23_19h05.03.611,Probabilistic Learning,3.1.0,60,,,,,,,,1,0,6,4,1,5,hiragana5.xlsx,hiragana51.xlsx,,,,,,,,,,,,,,,,,m,0.062,2,0,92,24,1,91,h,B,C,B,,c,,
,,,,,,,,,,,,,,,,,,2019-05-23_19h05.03.611,Probabilistic Learning,3.1.0,60,,,,,,,,1,0,6,4,1,5,hiragana5.xlsx,hiragana51.xlsx,,,,,,,,,,,,,,,,,c,0.146,2,0,92,32,1,91,j,B,E,B,,c,,
,,,,,,,,,,,,,,,,,,2019-05-23_19h05.03.611,Probabilistic Learning,3.1.0,60,,,,,,,,1,0,6,4,1,5,hiragana5.xlsx,hiragana51.xlsx,,,,,,,,,,,,,,,,,m,0.162,2,0,92,36,1,91,S,B,F,B,,c,,
,,,,,,,,,,,,,,,,,,2019-05-23_19h05.03.611,Probabilistic Learning,3.1.0,60,,,,,,,,1,0,6,4,1,5,hiragana5.xlsx,hiragana51.xlsx,,,,,,,,,,,,,,,,,m,0.229,2,0,92,8,1,91,h,Q,C,A,m,,,
,,,,,,,,,,,,,,,,,,2019-05-23_19h05.03.611,Probabilistic Learning,3.1.0,60,,,,,,,,1,0,6,4,1,5,hiragana5.xlsx,hiragana51.xlsx,,,,,,,,,,,,,,,,,c,0.146,2,0,92,14,1,91,Q,j,A,E,c,,,
,,,,,,,,,,,,,,,,,,2019-05-23_19h05.03.611,Probabilistic Learning,3.1.0,60,,,,,,,,1,0,6,4,1,5,hiragana5.xlsx,hiragana51.xlsx,,,,,,,,,,,,,,,,,m,0.213,2,0,92,31,1,91,B,j,B,E,,m,,
,,,,,,,,,,,,,,,,,,2019-05-23_19h05.03.611,Probabilistic Learning,3.1.0,60,,,,,,,,1,0,6,4,1,5,hiragana5.xlsx,hiragana51.xlsx,,,,,,,,,,,,,,,,,m,0.23,2,0,92,11,1,91,Q,G,A,D,c,,,
,,,,,,,,,,,,,,,,,,2019-05-23_19h05.03.611,Probabilistic Learning,3.1.0,60,,,,,,,,1,0,6,4,1,5,hiragana5.xlsx,hiragana51.xlsx,,,,,,,,,,,,,,,,,m,0.23,2,0,92,15,1,91,Q,j,A,E,c,,,
,,,,,,,,,,,,,,,,,,2019-05-23_19h05.03.611,Probabilistic Learning,3.1.0,60,,,,,,,,1,0,6,4,1,5,hiragana5.xlsx,hiragana51.xlsx,,,,,,,,,,,,,,,,,c,0.18,2,0,92,9,1,91,h,Q,C,A,m,,,
,,,,,,,,,,,,,,,,,,2019-05-23_19h05.03.611,Probabilistic Learning,3.1.0,60,,,,,,,,1,0,6,4,1,5,hiragana5.xlsx,hiragana51.xlsx,,,,,,,,,,,,,,,,,c,0.245,2,0,92,12,1,91,G,Q,D,A,m,,,
,,,,,,,,,,,,,,,,,,2019-05-23_19h05.03.611,Probabilistic Learning,3.1.0,60,,,,,,,,1,0,6,4,1,5,hiragana5.xlsx,hiragana51.xlsx,,,,,,,,,,,,,,,,,m,0.179,2,0,92,37,1,91,S,B,F,B,,c,,
,,,,,,,,,,,,,,,,,,2019-05-23_19h05.03.611,Probabilistic Learning,3.1.0,60,,,,,,,,1,0,6,4,1,5,hiragana5.xlsx,hiragana51.xlsx,,,,,,,,,,,,,,,,,m,0.247,2,0,92,22,1,91,B,h,B,C,,m,,
,,,,,,,,,,,,,,,,,,2019-05-23_19h05.03.611,Probabilistic Learning,3.1.0,60,,,,,,,,1,0,6,4,1,5,hiragana5.xlsx,hiragana51.xlsx,,,,,,,,,,,,,,,,,c,0.245,2,0,92,23,1,91,B,h,B,C,,m,,
,,,,,,,,,,,,,,,,,,2019-05-23_19h05.03.611,Probabilistic Learning,3.1.0,60,,,,,,,,1,0,6,4,1,5,hiragana5.xlsx,hiragana51.xlsx,,,,,,,,,,,,,,,,,m,0.298,2,0,92,8,1,91,h,Q,C,A,m,,,
,,,,,,,,,,,,,,,,,,2019-05-23_19h05.03.611,Probabilistic Learning,3.1.0,60,,,,,,,,1,0,6,4,1,5,hiragana5.xlsx,hiragana51.xlsx,,,,,,,,,,,,,,,,,m,0.229,2,0,92,10,1,91,Q,G,A,D,c,,,
,,,,,,,,,,,,,,,,,,2019-05-23_19h05.03.611,Probabilistic Learning,3.1.0,60,,,,,,,,1,0,6,4,1,5,hiragana5.xlsx,hiragana51.xlsx,,,,,,,,,,,,,,,,,c,0.295,2,0,92,16,1,91,j,Q,E,A,m,,,
,,,,,,,,,,,,,,,,,,2019-05-23_19h05.03.611,Probabilistic Learning,3.1.0,60,,,,,,,,1,0,6,4,1,5,hiragana5.xlsx,hiragana51.xlsx,,,,,,,,,,,,,,,,,m,0.279,2,0,92,40,1,91,h,S,c,f,,,,
,,,,,,,,,,,,,,,,,,2019-05-23_19h05.03.611,Probabilistic Learning,3.1.0,60,,,,,,,,1,0,6,4,1,5,hiragana5.xlsx,hiragana51.xlsx,,,,,,,,,,,,,,,,,m,0.264,2,0,92,34,1,91,B,S,B,F,,m,,
,,,,,,,,,,,,,,,,,,2019-05-23_19h05.03.611,Probabilistic Learning,3.1.0,60,,,,,,,,1,0,6,4,1,5,hiragana5.xlsx,hiragana51.xlsx,,,,,,,,,,,,,,,,,c,0.131,2,0,92,42,1,91,G,j,d,e,,,,
,,,,,,,,,,,,,,,,,,2019-05-23_19h05.03.611,Probabilistic Learning,3.1.0,60,,,,,,,,1,0,6,4,1,5,hiragana5.xlsx,hiragana51.xlsx,,,,,,,,,,,,,,,,,c,0.046,2,0,92,31,1,91,B,j,B,E,,m,,
,,,,,,,,,,,,,,,,,,2019-05-23_19h05.03.611,Probabilistic Learning,3.1.0,60,,,,,,,,1,0,6,4,1,5,hiragana5.xlsx,hiragana51.xlsx,,,,,,,,,,,,,,,,,m,0.262,2,0,92,6,1,91,Q,h,A,C,c,,,
,,,,,,,,,,,,,,,,,,2019-05-23_19h05.03.611,Probabilistic Learning,3.1.0,60,,,,,,,,1,0,6,4,1,5,hiragana5.xlsx,hiragana51.xlsx,,,,,,,,,,,,,,,,,m,0.264,2,0,92,18,1,91,Q,S,A,F,c,,,
,,,,,,,,,,,,,,,,,,2019-05-23_19h05.03.611,Probabilistic Learning,3.1.0,60,,,,,,,,1,0,6,4,1,5,hiragana5.xlsx,hiragana51.xlsx,,,,,,,,,,,,,,,,,c,0.231,2,0,92,32,1,91,j,B,E,B,,c,,
,,,,,,,,,,,,,,,,,,2019-05-23_19h05.03.611,Probabilistic Learning,3.1.0,60,,,,,,,,1,0,6,4,1,5,hiragana5.xlsx,hiragana51.xlsx,,,,,,,,,,,,,,,,,c,0.195,2,0,92,44,1,91,G,S,d,f,,,,
,,,,,,,,,,,,,,,,,,2019-05-23_19h05.03.611,Probabilistic Learning,3.1.0,60,,,,,,,,1,0,6,4,1,5,hiragana5.xlsx,hiragana51.xlsx,,,,,,,,,,,,,,,,,m,0.228,2,0,92,26,1,91,B,G,B,D,,m,,
,,,,,,,,,,,,,,,,,,2019-05-23_19h05.03.611,Probabilistic Learning,3.1.0,60,,,,,,,,1,0,6,4,1,5,hiragana5.xlsx,hiragana51.xlsx,,,,,,,,,,,,,,,,,c,0.297,2,0,92,15,1,91,Q,j,A,E,c,,,
,,,,,,,,,,,,,,,,,,2019-05-23_19h05.03.611,Probabilistic Learning,3.1.0,60,,,,,,,,1,0,6,4,1,5,hiragana5.xlsx,hiragana51.xlsx,,,,,,,,,,,,,,,,,m,0.145,2,0,92,20,1,91,S,Q,F,A,m,,,
,,,,,,,,,,,,,,,,,,2019-05-23_19h05.03.611,Probabilistic Learning,3.1.0,60,,,,,,,,1,0,6,4,1,5,hiragana5.xlsx,hiragana51.xlsx,,,,,,,,,,,,,,,,,m,0.312,2,0,92,4,1,91,j,S,E,F,,,,
,,,,,,,,,,,,,,,,,,2019-05-23_19h05.03.611,Probabilistic Learning,3.1.0,60,,,,,,,,1,0,6,4,1,5,hiragana5.xlsx,hiragana51.xlsx,,,,,,,,,,,,,,,,,c,0.23,2,0,92,11,1,91,Q,G,A,D,c,,,
,,,,,,,,,,,,,,,,,,2019-05-23_19h05.03.611,Probabilistic Learning,3.1.0,60,,,,,,,,1,0,6,4,1,5,hiragana5.xlsx,hiragana51.xlsx,,,,,,,,,,,,,,,,,m,0.23,2,0,92,41,1,91,S,h,f,c,,,,
,,,,,,,,,,,,,,,,,,2019-05-23_19h05.03.611,Probabilistic Learning,3.1.0,60,,,,,,,,1,0,6,4,1,5,hiragana5.xlsx,hiragana51.xlsx,,,,,,,,,,,,,,,,,m,0.197,2,0,92,5,1,91,S,j,F,E,,,,
,,,,,,,,,,,,,,,,,,2019-05-23_19h05.03.611,Probabilistic Learning,3.1.0,60,,,,,,,,1,0,6,4,1,5,hiragana5.xlsx,hiragana51.xlsx,,,,,,,,,,,,,,,,,c,0.248,2,0,92,25,1,91,h,B,C,B,,c,,
,,,,,,,,,,,,,,,,,,2019-05-23_19h05.03.611,Probabilistic Learning,3.1.0,60,,,,,,,,1,0,6,4,1,5,hiragana5.xlsx,hiragana51.xlsx,,,,,,,,,,,,,,,,,m,0.245,2,0,92,24,1,91,h,B,C,B,,c,,
,,,,,,,,,,,,,,,,,,2019-05-23_19h05.03.611,Probabilistic Learning,3.1.0,60,,,,,,,,1,0,6,4,1,5,hiragana5.xlsx,hiragana51.xlsx,,,,,,,,,,,,,,,,,m,0.363,2,0,92,2,1,91,h,G,C,D,,,,
,,,,,,,,,,,,,,,,,,2019-05-23_19h05.03.611,Probabilistic Learning,3.1.0,60,,,,,,,,1,0,6,4,1,5,hiragana5.xlsx,hiragana51.xlsx,,,,,,,,,,,,,,,,,c,0.229,2,0,92,21,1,91,S,Q,F,A,m,,,
,,,,,,,,,,,,,,,,,,2019-05-23_19h05.03.611,Probabilistic Learning,3.1.0,60,,,,,,,,1,0,6,4,1,5,hiragana5.xlsx,hiragana51.xlsx,,,,,,,,,,,,,,,,,m,0.014,2,0,92,30,1,91,B,j,B,E,,m,,
,,,,,,,,,,,,,,,,,,2019-05-23_19h05.03.611,Probabilistic Learning,3.1.0,60,,,,,,,,1,0,6,4,1,5,hiragana5.xlsx,hiragana51.xlsx,,,,,,,,,,,,,,,,,m,0.229,2,0,92,3,1,91,G,h,D,C,,,,
,,,,,,,,,,,,,,,,,,2019-05-23_19h05.03.611,Probabilistic Learning,3.1.0,60,,,,,,,,1,0,6,4,1,5,hiragana5.xlsx,hiragana51.xlsx,,,,,,,,,,,,,,,,,m,0.263,2,0,92,36,1,91,S,B,F,B,,c,,
,,,,,,,,,,,,,,,,,,2019-05-23_19h05.03.611,Probabilistic Learning,3.1.0,60,,,,,,,,1,0,6,4,1,5,hiragana5.xlsx,hiragana51.xlsx,,,,,,,,,,,,,,,,,c,0.262,2,0,92,0,1,91,Q,B,A,B,,,,
,,,,,,,,,,,,,,,,,,2019-05-23_19h05.03.611,Probabilistic Learning,3.1.0,60,,,,,,,,1,0,6,4,1,5,hiragana5.xlsx,hiragana51.xlsx,,,,,,,,,,,,,,,,,m,0.263,2,0,92,27,1,91,B,G,B,D,,m,,
,,,,,,,,,,,,,,,,,,2019-05-23_19h05.03.611,Probabilistic Learning,3.1.0,60,,,,,,,,1,0,6,4,1,5,hiragana5.xlsx,hiragana51.xlsx,,,,,,,,,,,,,,,,,m,0.298,2,0,92,39,1,91,j,h,e,c,,,,
,,,,,,,,,,,,,,,,,,2019-05-23_19h05.03.611,Probabilistic Learning,3.1.0,60,,,,,,,,1,0,6,4,1,5,hiragana5.xlsx,hiragana51.xlsx,,,,,,,,,,,,,,,,,c,0.23,2,0,92,28,1,91,G,B,D,B,,c,,
,,,,,,,,,,,,,,,,,,2019-05-23_19h05.03.611,Probabilistic Learning,3.1.0,60,,,,,,,,1,0,6,4,1,5,hiragana5.xlsx,hiragana51.xlsx,,,,,,,,,,,,,,,,,m,0.243,2,0,92,35,1,91,B,S,B,F,,m,,
,,,,,,,,,,,,,,,,,,2019-05-23_19h05.03.611,Probabilistic Learning,3.1.0,60,,,,,,,,1,0,6,4,1,5,hiragana5.xlsx,hiragana51.xlsx,,,,,,,,,,,,,,,,,m,0.263,2,0,92,14,1,91,Q,j,A,E,c,,,
,,,,,,,,,,,,,,,,,,2019-05-23_19h05.03.611,Probabilistic Learning,3.1.0,60,,,,,,,,1,0,6,4,1,5,hiragana5.xlsx,hiragana51.xlsx,,,,,,,,,,,,,,,,,c,0.229,2,0,92,13,1,91,G,Q,D,A,m,,,
,,,,,,,,,,,,,,,,,,2019-05-23_19h05.03.611,Probabilistic Learning,3.1.0,60,,,,,,,,1,0,6,4,1,5,hiragana5.xlsx,hiragana51.xlsx,,,,,,,,,,,,,,,,,m,0.163,2,0,92,17,1,91,j,Q,E,A,m,,,
,,,,,,,,,,,,,,,,,,2019-05-23_19h05.03.611,Probabilistic Learning,3.1.0,60,,,,,,,,1,0,6,4,1,5,hiragana5.xlsx,hiragana51.xlsx,,,,,,,,,,,,,,,,,m,0.214,2,0,92,19,1,91,Q,S,A,F,c,,,
,,,,,,,,,,,,,,,,,,2019-05-23_19h05.03.611,Probabilistic Learning,3.1.0,60,,,,,,,,1,0,6,4,1,5,hiragana5.xlsx,hiragana51.xlsx,,,,,,,,,,,,,,,,,c,0.212,2,0,92,45,1,91,S,G,f,d,,,,
,,,,,,,,,,,,,,,,,,2019-05-23_19h05.03.611,Probabilistic Learning,3.1.0,60,,,,,,,,1,0,6,4,1,5,hiragana5.xlsx,hiragana51.xlsx,,,,,,,,,,,,,,,,,m,0.081,2,0,92,7,1,91,Q,h,A,C,c,,,
,,,,,,,,,,,,,,,,,,2019-05-23_19h05.03.611,Probabilistic Learning,3.1.0,60,,,,,,,,1,0,6,4,1,5,hiragana5.xlsx,hiragana51.xlsx,,,,,,,,,,,,,,,,,m,0.264,2,0,92,43,1,91,j,G,e,d,,,,
,,,,,,,,,,,,,,,,,,2019-05-23_19h05.03.611,Probabilistic Learning,3.1.0,60,,,,,,,,1,0,6,4,1,5,hiragana5.xlsx,hiragana51.xlsx,,,,,,,,,,,,,,,,,m,0.262,2,0,92,38,1,91,h,j,C,E,,,,
,,,,,,,,,,,,,,,,,,2019-05-23_19h05.03.611,Probabilistic Learning,3.1.0,60,,,,,,,,1,0,6,4,1,5,hiragana5.xlsx,hiragana51.xlsx,,,,,,,,,,,,,,,,,c,0.264,2,0,92,1,1,91,B,Q,B,A,,,,
,,,,,,,,,,,,,,,,,,2019-05-23_19h05.03.611,Probabilistic Learning,3.1.0,60,,,,,,,,1,0,6,4,1,5,hiragana5.xlsx,hiragana51.xlsx,,,,,,,,,,,,,,,,,m,0.245,2,0,92,33,1,91,j,B,E,B,,c,,
,,,,,,,,,,,,,,,,,,2019-05-23_19h05.03.611,Probabilistic Learning,3.1.0,60,,,,,,,,1,0,6,4,1,5,hiragana5.xlsx,hiragana51.xlsx,,,,,,,,,,,,,,,,,m,0.111,2,0,92,29,1,91,G,B,D,B,,c,,
,,,,,,,,,,,,,,,,,,2019-05-23_19h05.03.611,Probabilistic Learning,3.1.0,60,,,,,,,,1,0,6,4,1,5,hiragana5.xlsx,hiragana51.xlsx,,,,,,,,,,,,,,,,,,,,,,,,,,,,,,,space,1.011
,,,,,,,,,,,,,,,,,,2019-05-23_19h05.03.611,Probabilistic Learning,3.1.0,60,,,space,0.914,m,0,0.427,1,0,6,3,1,5,hiragana4.xlsx,hiragana41.xlsx,6,0,180,3,1,179,k,R,c,c,,,,,,,,,,,,,,,,,,,,,,
,,,,,,,,,,,,,,,,,,2019-05-23_19h05.03.611,Probabilistic Learning,3.1.0,60,,,,,c,0,0.411,1,0,6,3,1,5,hiragana4.xlsx,hiragana41.xlsx,6,0,180,16,1,179,i,c,m,,m,,,,,,,,,,,,,,,,,,,,,
,,,,,,,,,,,,,,,,,,2019-05-23_19h05.03.611,Probabilistic Learning,3.1.0,60,,,,,m,1,0.463,1,0,6,3,1,5,hiragana4.xlsx,hiragana41.xlsx,6,0,180,7,1,179,R,k,m,m,,,,,,,,,,,,,,,,,,,,,,
,,,,,,,,,,,,,,,,,,2019-05-23_19h05.03.611,Probabilistic Learning,3.1.0,60,,,,,c,1,0.38,1,0,6,3,1,5,hiragana4.xlsx,hiragana41.xlsx,6,0,180,9,1,179,R,k,c,m,,,,,,,,,,,,,,,,,,,,,,
,,,,,,,,,,,,,,,,,,2019-05-23_19h05.03.611,Probabilistic Learning,3.1.0,60,,,,,c,0,0.445,1,0,6,3,1,5,hiragana4.xlsx,hiragana41.xlsx,6,0,180,15,1,179,i,c,m,,m,,,,,,,,,,,,,,,,,,,,,
,,,,,,,,,,,,,,,,,,2019-05-23_19h05.03.611,Probabilistic Learning,3.1.0,60,,,,,c,1,0.412,1,0,6,3,1,5,hiragana4.xlsx,hiragana41.xlsx,6,0,180,10,1,179,c,i,c,,c,,,,,,,,,,,,,,,,,,,,,
,,,,,,,,,,,,,,,,,,2019-05-23_19h05.03.611,Probabilistic Learning,3.1.0,60,,,,,c,1,0.543,1,0,6,3,1,5,hiragana4.xlsx,hiragana41.xlsx,6,0,180,22,1,179,M,n,c,,,c,,,,,,,,,,,,,,,,,,,,
,,,,,,,,,,,,,,,,,,2019-05-23_19h05.03.611,Probabilistic Learning,3.1.0,60,,,,,c,1,0.462,1,0,6,3,1,5,hiragana4.xlsx,hiragana41.xlsx,6,0,180,13,1,179,c,i,c,,c,,,,,,,,,,,,,,,,,,,,,
,,,,,,,,,,,,,,,,,,2019-05-23_19h05.03.611,Probabilistic Learning,3.1.0,60,,,,,m,0,0.363,1,0,6,3,1,5,hiragana4.xlsx,hiragana41.xlsx,6,0,180,18,1,179,i,c,c,,m,,,,,,,,,,,,,,,,,,,,,
,,,,,,,,,,,,,,,,,,2019-05-23_19h05.03.611,Probabilistic Learning,3.1.0,60,,,,,m,0,0.347,1,0,6,3,1,5,hiragana4.xlsx,hiragana41.xlsx,6,0,180,17,1,179,i,c,c,,m,,,,,,,,,,,,,,,,,,,,,
,,,,,,,,,,,,,,,,,,2019-05-23_19h05.03.611,Probabilistic Learning,3.1.0,60,,,,,c,0,0.53,1,0,6,3,1,5,hiragana4.xlsx,hiragana41.xlsx,6,0,180,8,1,179,k,R,m,c,,,,,,,,,,,,,,,,,,,,,,
,,,,,,,,,,,,,,,,,,2019-05-23_19h05.03.611,Probabilistic Learning,3.1.0,60,,,,,c,0,0.464,1,0,6,3,1,5,hiragana4.xlsx,hiragana41.xlsx,6,0,180,19,1,179,c,i,m,,c,,,,,,,,,,,,,,,,,,,,,
,,,,,,,,,,,,,,,,,,2019-05-23_19h05.03.611,Probabilistic Learning,3.1.0,60,,,,,c,1,0.48,1,0,6,3,1,5,hiragana4.xlsx,hiragana41.xlsx,6,0,180,1,1,179,k,R,c,c,,,,,,,,,,,,,,,,,,,,,,
,,,,,,,,,,,,,,,,,,2019-05-23_19h05.03.611,Probabilistic Learning,3.1.0,60,,,,,c,0,0.413,1,0,6,3,1,5,hiragana4.xlsx,hiragana41.xlsx,6,0,180,23,1,179,n,M,m,,,m,,,,,,,,,,,,,,,,,,,,
,,,,,,,,,,,,,,,,,,2019-05-23_19h05.03.611,Probabilistic Learning,3.1.0,60,,,,,m,1,0.463,1,0,6,3,1,5,hiragana4.xlsx,hiragana41.xlsx,6,0,180,24,1,179,n,M,m,,,m,,,,,,,,,,,,,,,,,,,,
,,,,,,,,,,,,,,,,,,2019-05-23_19h05.03.611,Probabilistic Learning,3.1.0,60,,,,,c,1,0.397,1,0,6,3,1,5,hiragana4.xlsx,hiragana41.xlsx,6,0,180,0,1,179,k,R,c,c,,,,,,,,,,,,,,,,,,,,,,
,,,,,,,,,,,,,,,,,,2019-05-23_19h05.03.611,Probabilistic Learning,3.1.0,60,,,,,m,1,0.363,1,0,6,3,1,5,hiragana4.xlsx,hiragana41.xlsx,6,0,180,4,1,179,R,k,m,m,,,,,,,,,,,,,,,,,,,,,,
,,,,,,,,,,,,,,,,,,2019-05-23_19h05.03.611,Probabilistic Learning,3.1.0,60,,,,,m,1,0.395,1,0,6,3,1,5,hiragana4.xlsx,hiragana41.xlsx,6,0,180,5,1,179,R,k,m,m,,,,,,,,,,,,,,,,,,,,,,
,,,,,,,,,,,,,,,,,,2019-05-23_19h05.03.611,Probabilistic Learning,3.1.0,60,,,,,c,1,0.414,1,0,6,3,1,5,hiragana4.xlsx,hiragana41.xlsx,6,0,180,20,1,179,M,n,c,,,c,,,,,,,,,,,,,,,,,,,,
,,,,,,,,,,,,,,,,,,2019-05-23_19h05.03.611,Probabilistic Learning,3.1.0,60,,,,,m,1,0.363,1,0,6,3,1,5,hiragana4.xlsx,hiragana41.xlsx,6,0,180,6,1,179,R,k,m,m,,,,,,,,,,,,,,,,,,,,,,
,,,,,,,,,,,,,,,,,,2019-05-23_19h05.03.611,Probabilistic Learning,3.1.0,60,,,,,c,1,0.379,1,0,6,3,1,5,hiragana4.xlsx,hiragana41.xlsx,6,0,180,21,1,179,M,n,c,,,c,,,,,,,,,,,,,,,,,,,,
,,,,,,,,,,,,,,,,,,2019-05-23_19h05.03.611,Probabilistic Learning,3.1.0,60,,,,,m,1,0.364,1,0,6,3,1,5,hiragana4.xlsx,hiragana41.xlsx,6,0,180,25,1,179,n,M,m,,,m,,,,,,,,,,,,,,,,,,,,
,,,,,,,,,,,,,,,,,,2019-05-23_19h05.03.611,Probabilistic Learning,3.1.0,60,,,,,m,0,0.363,1,0,6,3,1,5,hiragana4.xlsx,hiragana41.xlsx,6,0,180,28,1,179,n,M,c,,,m,,,,,,,,,,,,,,,,,,,,
,,,,,,,,,,,,,,,,,,2019-05-23_19h05.03.611,Probabilistic Learning,3.1.0,60,,,,,c,1,0.38,1,0,6,3,1,5,hiragana4.xlsx,hiragana41.xlsx,6,0,180,2,1,179,k,R,c,c,,,,,,,,,,,,,,,,,,,,,,
,,,,,,,,,,,,,,,,,,2019-05-23_19h05.03.611,Probabilistic Learning,3.1.0,60,,,,,c,0,0.413,1,0,6,3,1,5,hiragana4.xlsx,hiragana41.xlsx,6,0,180,27,1,179,M,n,m,,,c,,,,,,,,,,,,,,,,,,,,
,,,,,,,,,,,,,,,,,,2019-05-23_19h05.03.611,Probabilistic Learning,3.1.0,60,,,,,m,0,0.379,1,0,6,3,1,5,hiragana4.xlsx,hiragana41.xlsx,6,0,180,11,1,179,c,i,c,,c,,,,,,,,,,,,,,,,,,,,,
,,,,,,,,,,,,,,,,,,2019-05-23_19h05.03.611,Probabilistic Learning,3.1.0,60,,,,,c,1,0.346,1,0,6,3,1,5,hiragana4.xlsx,hiragana41.xlsx,6,0,180,12,1,179,c,i,c,,c,,,,,,,,,,,,,,,,,,,,,
,,,,,,,,,,,,,,,,,,2019-05-23_19h05.03.611,Probabilistic Learning,3.1.0,60,,,,,m,0,0.648,1,0,6,3,1,5,hiragana4.xlsx,hiragana41.xlsx,6,0,180,29,1,179,n,M,c,,,m,,,,,,,,,,,,,,,,,,,,
,,,,,,,,,,,,,,,,,,2019-05-23_19h05.03.611,Probabilistic Learning,3.1.0,60,,,,,m,1,0.347,1,0,6,3,1,5,hiragana4.xlsx,hiragana41.xlsx,6,0,180,14,1,179,i,c,m,,m,,,,,,,,,,,,,,,,,,,,,
,,,,,,,,,,,,,,,,,,2019-05-23_19h05.03.611,Probabilistic Learning,3.1.0,60,,,,,c,0,0.531,1,0,6,3,1,5,hiragana4.xlsx,hiragana41.xlsx,6,0,180,26,1,179,M,n,m,,,c,,,,,,,,,,,,,,,,,,,,
,,,,,,,,,,,,,,,,,,2019-05-23_19h05.03.611,Probabilistic Learning,3.1.0,60,,,,,c,1,0.346,1,0,6,3,1,5,hiragana4.xlsx,hiragana41.xlsx,6,0,180,22,1,179,M,n,c,,,c,,,,,,,,,,,,,,,,,,,,
,,,,,,,,,,,,,,,,,,2019-05-23_19h05.03.611,Probabilistic Learning,3.1.0,60,,,,,c,1,0.33,1,0,6,3,1,5,hiragana4.xlsx,hiragana41.xlsx,6,0,180,20,1,179,M,n,c,,,c,,,,,,,,,,,,,,,,,,,,
,,,,,,,,,,,,,,,,,,2019-05-23_19h05.03.611,Probabilistic Learning,3.1.0,60,,,,,m,0,0.529,1,0,6,3,1,5,hiragana4.xlsx,hiragana41.xlsx,6,0,180,17,1,179,i,c,c,,m,,,,,,,,,,,,,,,,,,,,,
,,,,,,,,,,,,,,,,,,2019-05-23_19h05.03.611,Probabilistic Learning,3.1.0,60,,,,,c,0,0.413,1,0,6,3,1,5,hiragana4.xlsx,hiragana41.xlsx,6,0,180,7,1,179,R,k,m,m,,,,,,,,,,,,,,,,,,,,,,
,,,,,,,,,,,,,,,,,,2019-05-23_19h05.03.611,Probabilistic Learning,3.1.0,60,,,,,c,0,0.447,1,0,6,3,1,5,hiragana4.xlsx,hiragana41.xlsx,6,0,180,19,1,179,c,i,m,,c,,,,,,,,,,,,,,,,,,,,,
,,,,,,,,,,,,,,,,,,2019-05-23_19h05.03.611,Probabilistic Learning,3.1.0,60,,,,,c,0,0.797,1,0,6,3,1,5,hiragana4.xlsx,hiragana41.xlsx,6,0,180,8,1,179,k,R,m,c,,,,,,,,,,,,,,,,,,,,,,
,,,,,,,,,,,,,,,,,,2019-05-23_19h05.03.611,Probabilistic Learning,3.1.0,60,,,,,c,0,0.497,1,0,6,3,1,5,hiragana4.xlsx,hiragana41.xlsx,6,0,180,27,1,179,M,n,m,,,c,,,,,,,,,,,,,,,,,,,,
,,,,,,,,,,,,,,,,,,2019-05-23_19h05.03.611,Probabilistic Learning,3.1.0,60,,,,,m,0,0.545,1,0,6,3,1,5,hiragana4.xlsx,hiragana41.xlsx,6,0,180,18,1,179,i,c,c,,m,,,,,,,,,,,,,,,,,,,,,
,,,,,,,,,,,,,,,,,,2019-05-23_19h05.03.611,Probabilistic Learning,3.1.0,60,,,,,m,0,0.513,1,0,6,3,1,5,hiragana4.xlsx,hiragana41.xlsx,6,0,180,28,1,179,n,M,c,,,m,,,,,,,,,,,,,,,,,,,,
,,,,,,,,,,,,,,,,,,2019-05-23_19h05.03.611,Probabilistic Learning,3.1.0,60,,,,,c,1,0.364,1,0,6,3,1,5,hiragana4.xlsx,hiragana41.xlsx,6,0,180,1,1,179,k,R,c,c,,,,,,,,,,,,,,,,,,,,,,
,,,,,,,,,,,,,,,,,,2019-05-23_19h05.03.611,Probabilistic Learning,3.1.0,60,,,,,m,1,0.379,1,0,6,3,1,5,hiragana4.xlsx,hiragana41.xlsx,6,0,180,5,1,179,R,k,m,m,,,,,,,,,,,,,,,,,,,,,,
,,,,,,,,,,,,,,,,,,2019-05-23_19h05.03.611,Probabilistic Learning,3.1.0,60,,,,,m,0,0.364,1,0,6,3,1,5,hiragana4.xlsx,hiragana41.xlsx,6,0,180,9,1,179,R,k,c,m,,,,,,,,,,,,,,,,,,,,,,
,,,,,,,,,,,,,,,,,,2019-05-23_19h05.03.611,Probabilistic Learning,3.1.0,60,,,,,c,0,0.397,1,0,6,3,1,5,hiragana4.xlsx,hiragana41.xlsx,6,0,180,26,1,179,M,n,m,,,c,,,,,,,,,,,,,,,,,,,,
,,,,,,,,,,,,,,,,,,2019-05-23_19h05.03.611,Probabilistic Learning,3.1.0,60,,,,,m,0,0.647,1,0,6,3,1,5,hiragana4.xlsx,hiragana41.xlsx,6,0,180,10,1,179,c,i,c,,c,,,,,,,,,,,,,,,,,,,,,
,,,,,,,,,,,,,,,,,,2019-05-23_19h05.03.611,Probabilistic Learning,3.1.0,60,,,,,m,1,0.43,1,0,6,3,1,5,hiragana4.xlsx,hiragana41.xlsx,6,0,180,4,1,179,R,k,m,m,,,,,,,,,,,,,,,,,,,,,,
,,,,,,,,,,,,,,,,,,2019-05-23_19h05.03.611,Probabilistic Learning,3.1.0,60,,,,,c,1,0.913,1,0,6,3,1,5,hiragana4.xlsx,hiragana41.xlsx,6,0,180,12,1,179,c,i,c,,c,,,,,,,,,,,,,,,,,,,,,
,,,,,,,,,,,,,,,,,,2019-05-23_19h05.03.611,Probabilistic Learning,3.1.0,60,,,,,m,1,0.413,1,0,6,3,1,5,hiragana4.xlsx,hiragana41.xlsx,6,0,180,15,1,179,i,c,m,,m,,,,,,,,,,,,,,,,,,,,,
,,,,,,,,,,,,,,,,,,2019-05-23_19h05.03.611,Probabilistic Learning,3.1.0,60,,,,,c,1,0.361,1,0,6,3,1,5,hiragana4.xlsx,hiragana41.xlsx,6,0,180,29,1,179,n,M,c,,,m,,,,,,,,,,,,,,,,,,,,
,,,,,,,,,,,,,,,,,,2019-05-23_19h05.03.611,Probabilistic Learning,3.1.0,60,,,,,m,1,0.379,1,0,6,3,1,5,hiragana4.xlsx,hiragana41.xlsx,6,0,180,23,1,179,n,M,m,,,m,,,,,,,,,,,,,,,,,,,,
,,,,,,,,,,,,,,,,,,2019-05-23_19h05.03.611,Probabilistic Learning,3.1.0,60,,,,,m,1,0.38,1,0,6,3,1,5,hiragana4.xlsx,hiragana41.xlsx,6,0,180,25,1,179,n,M,m,,,m,,,,,,,,,,,,,,,,,,,,
,,,,,,,,,,,,,,,,,,2019-05-23_19h05.03.611,Probabilistic Learning,3.1.0,60,,,,,c,1,0.514,1,0,6,3,1,5,hiragana4.xlsx,hiragana41.xlsx,6,0,180,11,1,179,c,i,c,,c,,,,,,,,,,,,,,,,,,,,,
,,,,,,,,,,,,,,,,,,2019-05-23_19h05.03.611,Probabilistic Learning,3.1.0,60,,,,,c,1,0.496,1,0,6,3,1,5,hiragana4.xlsx,hiragana41.xlsx,6,0,180,3,1,179,k,R,c,c,,,,,,,,,,,,,,,,,,,,,,
,,,,,,,,,,,,,,,,,,2019-05-23_19h05.03.611,Probabilistic Learning,3.1.0,60,,,,,m,1,0.496,1,0,6,3,1,5,hiragana4.xlsx,hiragana41.xlsx,6,0,180,14,1,179,i,c,m,,m,,,,,,,,,,,,,,,,,,,,,
,,,,,,,,,,,,,,,,,,2019-05-23_19h05.03.611,Probabilistic Learning,3.1.0,60,,,,,c,1,0.413,1,0,6,3,1,5,hiragana4.xlsx,hiragana41.xlsx,6,0,180,0,1,179,k,R,c,c,,,,,,,,,,,,,,,,,,,,,,
,,,,,,,,,,,,,,,,,,2019-05-23_19h05.03.611,Probabilistic Learning,3.1.0,60,,,,,c,1,0.397,1,0,6,3,1,5,hiragana4.xlsx,hiragana41.xlsx,6,0,180,2,1,179,k,R,c,c,,,,,,,,,,,,,,,,,,,,,,
,,,,,,,,,,,,,,,,,,2019-05-23_19h05.03.611,Probabilistic Learning,3.1.0,60,,,,,m,1,0.362,1,0,6,3,1,5,hiragana4.xlsx,hiragana41.xlsx,6,0,180,6,1,179,R,k,m,m,,,,,,,,,,,,,,,,,,,,,,
,,,,,,,,,,,,,,,,,,2019-05-23_19h05.03.611,Probabilistic Learning,3.1.0,60,,,,,c,1,0.445,1,0,6,3,1,5,hiragana4.xlsx,hiragana41.xlsx,6,0,180,13,1,179,c,i,c,,c,,,,,,,,,,,,,,,,,,,,,
,,,,,,,,,,,,,,,,,,2019-05-23_19h05.03.611,Probabilistic Learning,3.1.0,60,,,,,c,1,0.465,1,0,6,3,1,5,hiragana4.xlsx,hiragana41.xlsx,6,0,180,21,1,179,M,n,c,,,c,,,,,,,,,,,,,,,,,,,,
,,,,,,,,,,,,,,,,,,2019-05-23_19h05.03.611,Probabilistic Learning,3.1.0,60,,,,,m,1,0.431,1,0,6,3,1,5,hiragana4.xlsx,hiragana41.xlsx,6,0,180,24,1,179,n,M,m,,,m,,,,,,,,,,,,,,,,,,,,
,,,,,,,,,,,,,,,,,,2019-05-23_19h05.03.611,Probabilistic Learning,3.1.0,60,,,,,c,0,0.38,1,0,6,3,1,5,hiragana4.xlsx,hiragana41.xlsx,,,,,,,,,,,,,space,0.765,space,1.195,m,0.448,2,0,92,44,1,91,i,n,d,f,,,,
,,,,,,,,,,,,,,,,,,2019-05-23_19h05.03.611,Probabilistic Learning,3.1.0,60,,,,,,,,1,0,6,3,1,5,hiragana4.xlsx,hiragana41.xlsx,,,,,,,,,,,,,,,,,m,0.413,2,0,92,31,1,91,R,M,B,E,,m,,
,,,,,,,,,,,,,,,,,,2019-05-23_19h05.03.611,Probabilistic Learning,3.1.0,60,,,,,,,,1,0,6,3,1,5,hiragana4.xlsx,hiragana41.xlsx,,,,,,,,,,,,,,,,,c,0.511,2,0,92,13,1,91,i,k,D,A,m,,,
,,,,,,,,,,,,,,,,,,2019-05-23_19h05.03.611,Probabilistic Learning,3.1.0,60,,,,,,,,1,0,6,3,1,5,hiragana4.xlsx,hiragana41.xlsx,,,,,,,,,,,,,,,,,m,0.279,2,0,92,8,1,91,c,k,C,A,m,,,
,,,,,,,,,,,,,,,,,,2019-05-23_19h05.03.611,Probabilistic Learning,3.1.0,60,,,,,,,,1,0,6,3,1,5,hiragana4.xlsx,hiragana41.xlsx,,,,,,,,,,,,,,,,,m,0.03,2,0,92,20,1,91,n,k,F,A,m,,,
,,,,,,,,,,,,,,,,,,2019-05-23_19h05.03.611,Probabilistic Learning,3.1.0,60,,,,,,,,1,0,6,3,1,5,hiragana4.xlsx,hiragana41.xlsx,,,,,,,,,,,,,,,,,m,0.197,2,0,92,17,1,91,M,k,E,A,m,,,
,,,,,,,,,,,,,,,,,,2019-05-23_19h05.03.611,Probabilistic Learning,3.1.0,60,,,,,,,,1,0,6,3,1,5,hiragana4.xlsx,hiragana41.xlsx,,,,,,,,,,,,,,,,,m,0.228,2,0,92,24,1,91,c,R,C,B,,c,,
,,,,,,,,,,,,,,,,,,2019-05-23_19h05.03.611,Probabilistic Learning,3.1.0,60,,,,,,,,1,0,6,3,1,5,hiragana4.xlsx,hiragana41.xlsx,,,,,,,,,,,,,,,,,m,0.23,2,0,92,23,1,91,R,c,B,C,,m,,
,,,,,,,,,,,,,,,,,,2019-05-23_19h05.03.611,Probabilistic Learning,3.1.0,60,,,,,,,,1,0,6,3,1,5,hiragana4.xlsx,hiragana41.xlsx,,,,,,,,,,,,,,,,,c,0.214,2,0,92,5,1,91,n,M,F,E,,,,
,,,,,,,,,,,,,,,,,,2019-05-23_19h05.03.611,Probabilistic Learning,3.1.0,60,,,,,,,,1,0,6,3,1,5,hiragana4.xlsx,hiragana41.xlsx,,,,,,,,,,,,,,,,,c,0.196,2,0,92,12,1,91,i,k,D,A,m,,,
,,,,,,,,,,,,,,,,,,2019-05-23_19h05.03.611,Probabilistic Learning,3.1.0,60,,,,,,,,1,0,6,3,1,5,hiragana4.xlsx,hiragana41.xlsx,,,,,,,,,,,,,,,,,c,0.23,2,0,92,32,1,91,M,R,E,B,,c,,
,,,,,,,,,,,,,,,,,,2019-05-23_19h05.03.611,Probabilistic Learning,3.1.0,60,,,,,,,,1,0,6,3,1,5,hiragana4.xlsx,hiragana41.xlsx,,,,,,,,,,,,,,,,,m,0.164,2,0,92,39,1,91,M,c,e,c,,,,
,,,,,,,,,,,,,,,,,,2019-05-23_19h05.03.611,Probabilistic Learning,3.1.0,60,,,,,,,,1,0,6,3,1,5,hiragana4.xlsx,hiragana41.xlsx,,,,,,,,,,,,,,,,,m,0.194,2,0,92,3,1,91,i,c,D,C,,,,
,,,,,,,,,,,,,,,,,,2019-05-23_19h05.03.611,Probabilistic Learning,3.1.0,60,,,,,,,,1,0,6,3,1,5,hiragana4.xlsx,hiragana41.xlsx,,,,,,,,,,,,,,,,,m,0.198,2,0,92,26,1,91,R,i,B,D,,m,,
,,,,,,,,,,,,,,,,,,2019-05-23_19h05.03.611,Probabilistic Learning,3.1.0,60,,,,,,,,1,0,6,3,1,5,hiragana4.xlsx,hiragana41.xlsx,,,,,,,,,,,,,,,,,m,0.164,2,0,92,18,1,91,k,n,A,F,c,,,
,,,,,,,,,,,,,,,,,,2019-05-23_19h05.03.611,Probabilistic Learning,3.1.0,60,,,,,,,,1,0,6,3,1,5,hiragana4.xlsx,hiragana41.xlsx,,,,,,,,,,,,,,,,,m,0.18,2,0,92,4,1,91,M,n,E,F,,,,
,,,,,,,,,,,,,,,,,,2019-05-23_19h05.03.611,Probabilistic Learning,3.1.0,60,,,,,,,,1,0,6,3,1,5,hiragana4.xlsx,hiragana41.xlsx,,,,,,,,,,,,,,,,,c,0.063,2,0,92,22,1,91,R,c,B,C,,m,,
,,,,,,,,,,,,,,,,,,2019-05-23_19h05.03.611,Probabilistic Learning,3.1.0,60,,,,,,,,1,0,6,3,1,5,hiragana4.xlsx,hiragana41.xlsx,,,,,,,,,,,,,,,,,m,0.164,2,0,92,7,1,91,k,c,A,C,c,,,
,,,,,,,,,,,,,,,,,,2019-05-23_19h05.03.611,Probabilistic Learning,3.1.0,60,,,,,,,,1,0,6,3,1,5,hiragana4.xlsx,hiragana41.xlsx,,,,,,,,,,,,,,,,,m,0.21,2,0,92,35,1,91,R,n,B,F,,m,,
,,,,,,,,,,,,,,,,,,2019-05-23_19h05.03.611,Probabilistic Learning,3.1.0,60,,,,,,,,1,0,6,3,1,5,hiragana4.xlsx,hiragana41.xlsx,,,,,,,,,,,,,,,,,m,0.113,2,0,92,33,1,91,M,R,E,B,,c,,
,,,,,,,,,,,,,,,,,,2019-05-23_19h05.03.611,Probabilistic Learning,3.1.0,60,,,,,,,,1,0,6,3,1,5,hiragana4.xlsx,hiragana41.xlsx,,,,,,,,,,,,,,,,,m,0.231,2,0,92,16,1,91,M,k,E,A,m,,,
,,,,,,,,,,,,,,,,,,2019-05-23_19h05.03.611,Probabilistic Learning,3.1.0,60,,,,,,,,1,0,6,3,1,5,hiragana4.xlsx,hiragana41.xlsx,,,,,,,,,,,,,,,,,m,0.33,2,0,92,43,1,91,M,i,e,d,,,,
,,,,,,,,,,,,,,,,,,2019-05-23_19h05.03.611,Probabilistic Learning,3.1.0,60,,,,,,,,1,0,6,3,1,5,hiragana4.xlsx,hiragana41.xlsx,,,,,,,,,,,,,,,,,c,0.247,2,0,92,40,1,91,c,n,c,f,,,,
,,,,,,,,,,,,,,,,,,2019-05-23_19h05.03.611,Probabilistic Learning,3.1.0,60,,,,,,,,1,0,6,3,1,5,hiragana4.xlsx,hiragana41.xlsx,,,,,,,,,,,,,,,,,m,0.614,2,0,92,45,1,91,n,i,f,d,,,,
,,,,,,,,,,,,,,,,,,2019-05-23_19h05.03.611,Probabilistic Learning,3.1.0,60,,,,,,,,1,0,6,3,1,5,hiragana4.xlsx,hiragana41.xlsx,,,,,,,,,,,,,,,,,m,0.247,2,0,92,29,1,91,i,R,D,B,,c,,
,,,,,,,,,,,,,,,,,,2019-05-23_19h05.03.611,Probabilistic Learning,3.1.0,60,,,,,,,,1,0,6,3,1,5,hiragana4.xlsx,hiragana41.xlsx,,,,,,,,,,,,,,,,,c,0.264,2,0,92,21,1,91,n,k,F,A,m,,,
,,,,,,,,,,,,,,,,,,2019-05-23_19h05.03.611,Probabilistic Learning,3.1.0,60,,,,,,,,1,0,6,3,1,5,hiragana4.xlsx,hiragana41.xlsx,,,,,,,,,,,,,,,,,m,0.147,2,0,92,1,1,91,R,k,B,A,,,,
,,,,,,,,,,,,,,,,,,2019-05-23_19h05.03.611,Probabilistic Learning,3.1.0,60,,,,,,,,1,0,6,3,1,5,hiragana4.xlsx,hiragana41.xlsx,,,,,,,,,,,,,,,,,m,0.247,2,0,92,0,1,91,k,R,A,B,,,,
,,,,,,,,,,,,,,,,,,2019-05-23_19h05.03.611,Probabilistic Learning,3.1.0,60,,,,,,,,1,0,6,3,1,5,hiragana4.xlsx,hiragana41.xlsx,,,,,,,,,,,,,,,,,c,0.23,2,0,92,19,1,91,k,n,A,F,c,,,
,,,,,,,,,,,,,,,,,,2019-05-23_19h05.03.611,Probabilistic Learning,3.1.0,60,,,,,,,,1,0,6,3,1,5,hiragana4.xlsx,hiragana41.xlsx,,,,,,,,,,,,,,,,,m,0.263,2,0,92,34,1,91,R,n,B,F,,m,,
,,,,,,,,,,,,,,,,,,2019-05-23_19h05.03.611,Probabilistic Learning,3.1.0,60,,,,,,,,1,0,6,3,1,5,hiragana4.xlsx,hiragana41.xlsx,,,,,,,,,,,,,,,,,m,0.262,2,0,92,27,1,91,R,i,B,D,,m,,
,,,,,,,,,,,,,,,,,,2019-05-23_19h05.03.611,Probabilistic Learning,3.1.0,60,,,,,,,,1,0,6,3,1,5,hiragana4.xlsx,hiragana41.xlsx,,,,,,,,,,,,,,,,,c,0.263,2,0,92,37,1,91,n,R,F,B,,c,,
,,,,,,,,,,,,,,,,,,2019-05-23_19h05.03.611,Probabilistic Learning,3.1.0,60,,,,,,,,1,0,6,3,1,5,hiragana4.xlsx,hiragana41.xlsx,,,,,,,,,,,,,,,,,m,0.213,2,0,92,6,1,91,k,c,A,C,c,,,
,,,,,,,,,,,,,,,,,,2019-05-23_19h05.03.611,Probabilistic Learning,3.1.0,60,,,,,,,,1,0,6,3,1,5,hiragana4.xlsx,hiragana41.xlsx,,,,,,,,,,,,,,,,,m,0.281,2,0,92,42,1,91,i,M,d,e,,,,
,,,,,,,,,,,,,,,,,,2019-05-23_19h05.03.611,Probabilistic Learning,3.1.0,60,,,,,,,,1,0,6,3,1,5,hiragana4.xlsx,hiragana41.xlsx,,,,,,,,,,,,,,,,,m,0.364,2,0,92,38,1,91,c,M,C,E,,,,
,,,,,,,,,,,,,,,,,,2019-05-23_19h05.03.611,Probabilistic Learning,3.1.0,60,,,,,,,,1,0,6,3,1,5,hiragana4.xlsx,hiragana41.xlsx,,,,,,,,,,,,,,,,,c,0.464,2,0,92,14,1,91,k,M,A,E,c,,,
,,,,,,,,,,,,,,,,,,2019-05-23_19h05.03.611,Probabilistic Learning,3.1.0,60,,,,,,,,1,0,6,3,1,5,hiragana4.xlsx,hiragana41.xlsx,,,,,,,,,,,,,,,,,c,0.397,2,0,92,15,1,91,k,M,A,E,c,,,
,,,,,,,,,,,,,,,,,,2019-05-23_19h05.03.611,Probabilistic Learning,3.1.0,60,,,,,,,,1,0,6,3,1,5,hiragana4.xlsx,hiragana41.xlsx,,,,,,,,,,,,,,,,,m,0.312,2,0,92,10,1,91,k,i,A,D,c,,,
,,,,,,,,,,,,,,,,,,2019-05-23_19h05.03.611,Probabilistic Learning,3.1.0,60,,,,,,,,1,0,6,3,1,5,hiragana4.xlsx,hiragana41.xlsx,,,,,,,,,,,,,,,,,c,0.297,2,0,92,2,1,91,c,i,C,D,,,,
,,,,,,,,,,,,,,,,,,2019-05-23_19h05.03.611,Probabilistic Learning,3.1.0,60,,,,,,,,1,0,6,3,1,5,hiragana4.xlsx,hiragana41.xlsx,,,,,,,,,,,,,,,,,m,0.229,2,0,92,11,1,91,k,i,A,D,c,,,
,,,,,,,,,,,,,,,,,,2019-05-23_19h05.03.611,Probabilistic Learning,3.1.0,60,,,,,,,,1,0,6,3,1,5,hiragana4.xlsx,hiragana41.xlsx,,,,,,,,,,,,,,,,,m,0.163,2,0,92,41,1,91,n,c,f,c,,,,
,,,,,,,,,,,,,,,,,,2019-05-23_19h05.03.611,Probabilistic Learning,3.1.0,60,,,,,,,,1,0,6,3,1,5,hiragana4.xlsx,hiragana41.xlsx,,,,,,,,,,,,,,,,,m,0.23,2,0,92,30,1,91,R,M,B,E,,m,,
,,,,,,,,,,,,,,,,,,2019-05-23_19h05.03.611,Probabilistic Learning,3.1.0,60,,,,,,,,1,0,6,3,1,5,hiragana4.xlsx,hiragana41.xlsx,,,,,,,,,,,,,,,,,c,0.331,2,0,92,9,1,91,c,k,C,A,m,,,
,,,,,,,,,,,,,,,,,,2019-05-23_19h05.03.611,Probabilistic Learning,3.1.0,60,,,,,,,,1,0,6,3,1,5,hiragana4.xlsx,hiragana41.xlsx,,,,,,,,,,,,,,,,,m,0.146,2,0,92,25,1,91,c,R,C,B,,c,,
,,,,,,,,,,,,,,,,,,2019-05-23_19h05.03.611,Probabilistic Learning,3.1.0,60,,,,,,,,1,0,6,3,1,5,hiragana4.xlsx,hiragana41.xlsx,,,,,,,,,,,,,,,,,m,0.095,2,0,92,36,1,91,n,R,F,B,,c,,
,,,,,,,,,,,,,,,,,,2019-05-23_19h05.03.611,Probabilistic Learning,3.1.0,60,,,,,,,,1,0,6,3,1,5,hiragana4.xlsx,hiragana41.xlsx,,,,,,,,,,,,,,,,,c,0.197,2,0,92,28,1,91,i,R,D,B,,c,,
,,,,,,,,,,,,,,,,,,2019-05-23_19h05.03.611,Probabilistic Learning,3.1.0,60,,,,,,,,1,0,6,3,1,5,hiragana4.xlsx,hiragana41.xlsx,,,,,,,,,,,,,,,,,m,0.412,2,0,92,22,1,91,R,c,B,C,,m,,
,,,,,,,,,,,,,,,,,,2019-05-23_19h05.03.611,Probabilistic Learning,3.1.0,60,,,,,,,,1,0,6,3,1,5,hiragana4.xlsx,hiragana41.xlsx,,,,,,,,,,,,,,,,,m,0.261,2,0,92,2,1,91,c,i,C,D,,,,
,,,,,,,,,,,,,,,,,,2019-05-23_19h05.03.611,Probabilistic Learning,3.1.0,60,,,,,,,,1,0,6,3,1,5,hiragana4.xlsx,hiragana41.xlsx,,,,,,,,,,,,,,,,,c,0.247,2,0,92,28,1,91,i,R,D,B,,c,,
,,,,,,,,,,,,,,,,,,2019-05-23_19h05.03.611,Probabilistic Learning,3.1.0,60,,,,,,,,1,0,6,3,1,5,hiragana4.xlsx,hiragana41.xlsx,,,,,,,,,,,,,,,,,m,0.23,2,0,92,34,1,91,R,n,B,F,,m,,
,,,,,,,,,,,,,,,,,,2019-05-23_19h05.03.611,Probabilistic Learning,3.1.0,60,,,,,,,,1,0,6,3,1,5,hiragana4.xlsx,hiragana41.xlsx,,,,,,,,,,,,,,,,,m,0.046,2,0,92,36,1,91,n,R,F,B,,c,,
,,,,,,,,,,,,,,,,,,2019-05-23_19h05.03.611,Probabilistic Learning,3.1.0,60,,,,,,,,1,0,6,3,1,5,hiragana4.xlsx,hiragana41.xlsx,,,,,,,,,,,,,,,,,c,0.128,2,0,92,16,1,91,M,k,E,A,m,,,
,,,,,,,,,,,,,,,,,,2019-05-23_19h05.03.611,Probabilistic Learning,3.1.0,60,,,,,,,,1,0,6,3,1,5,hiragana4.xlsx,hiragana41.xlsx,,,,,,,,,,,,,,,,,m,0.229,2,0,92,23,1,91,R,c,B,C,,m,,
,,,,,,,,,,,,,,,,,,2019-05-23_19h05.03.611,Probabilistic Learning,3.1.0,60,,,,,,,,1,0,6,3,1,5,hiragana4.xlsx,hiragana41.xlsx,,,,,,,,,,,,,,,,,m,0.197,2,0,92,3,1,91,i,c,D,C,,,,
,,,,,,,,,,,,,,,,,,2019-05-23_19h05.03.611,Probabilistic Learning,3.1.0,60,,,,,,,,1,0,6,3,1,5,hiragana4.xlsx,hiragana41.xlsx,,,,,,,,,,,,,,,,,m,0.314,2,0,92,38,1,91,c,M,C,E,,,,
,,,,,,,,,,,,,,,,,,2019-05-23_19h05.03.611,Probabilistic Learning,3.1.0,60,,,,,,,,1,0,6,3,1,5,hiragana4.xlsx,hiragana41.xlsx,,,,,,,,,,,,,,,,,c,0.214,2,0,92,8,1,91,c,k,C,A,m,,,
,,,,,,,,,,,,,,,,,,2019-05-23_19h05.03.611,Probabilistic Learning,3.1.0,60,,,,,,,,1,0,6,3,1,5,hiragana4.xlsx,hiragana41.xlsx,,,,,,,,,,,,,,,,,m,0.246,2,0,92,29,1,91,i,R,D,B,,c,,
,,,,,,,,,,,,,,,,,,2019-05-23_19h05.03.611,Probabilistic Learning,3.1.0,60,,,,,,,,1,0,6,3,1,5,hiragana4.xlsx,hiragana41.xlsx,,,,,,,,,,,,,,,,,m,0.214,2,0,92,39,1,91,M,c,e,c,,,,
,,,,,,,,,,,,,,,,,,2019-05-23_19h05.03.611,Probabilistic Learning,3.1.0,60,,,,,,,,1,0,6,3,1,5,hiragana4.xlsx,hiragana41.xlsx,,,,,,,,,,,,,,,,,m,0.18,2,0,92,17,1,91,M,k,E,A,m,,,
,,,,,,,,,,,,,,,,,,2019-05-23_19h05.03.611,Probabilistic Learning,3.1.0,60,,,,,,,,1,0,6,3,1,5,hiragana4.xlsx,hiragana41.xlsx,,,,,,,,,,,,,,,,,m,0.245,2,0,92,10,1,91,k,i,A,D,c,,,
,,,,,,,,,,,,,,,,,,2019-05-23_19h05.03.611,Probabilistic Learning,3.1.0,60,,,,,,,,1,0,6,3,1,5,hiragana4.xlsx,hiragana41.xlsx,,,,,,,,,,,,,,,,,c,0.13,2,0,92,44,1,91,i,n,d,f,,,,
,,,,,,,,,,,,,,,,,,2019-05-23_19h05.03.611,Probabilistic Learning,3.1.0,60,,,,,,,,1,0,6,3,1,5,hiragana4.xlsx,hiragana41.xlsx,,,,,,,,,,,,,,,,,m,0.279,2,0,92,43,1,91,M,i,e,d,,,,
,,,,,,,,,,,,,,,,,,2019-05-23_19h05.03.611,Probabilistic Learning,3.1.0,60,,,,,,,,1,0,6,3,1,5,hiragana4.xlsx,hiragana41.xlsx,,,,,,,,,,,,,,,,,m,0.23,2,0,92,21,1,91,n,k,F,A,m,,,
,,,,,,,,,,,,,,,,,,2019-05-23_19h05.03.611,Probabilistic Learning,3.1.0,60,,,,,,,,1,0,6,3,1,5,hiragana4.xlsx,hiragana41.xlsx,,,,,,,,,,,,,,,,,c,0.313,2,0,92,37,1,91,n,R,F,B,,c,,
,,,,,,,,,,,,,,,,,,2019-05-23_19h05.03.611,Probabilistic Learning,3.1.0,60,,,,,,,,1,0,6,3,1,5,hiragana4.xlsx,hiragana41.xlsx,,,,,,,,,,,,,,,,,m,0.312,2,0,92,11,1,91,k,i,A,D,c,,,
,,,,,,,,,,,,,,,,,,2019-05-23_19h05.03.611,Probabilistic Learning,3.1.0,60,,,,,,,,1,0,6,3,1,5,hiragana4.xlsx,hiragana41.xlsx,,,,,,,,,,,,,,,,,c,0.247,2,0,92,6,1,91,k,c,A,C,c,,,
,,,,,,,,,,,,,,,,,,2019-05-23_19h05.03.611,Probabilistic Learning,3.1.0,60,,,,,,,,1,0,6,3,1,5,hiragana4.xlsx,hiragana41.xlsx,,,,,,,,,,,,,,,,,m,0.197,2,0,92,25,1,91,c,R,C,B,,c,,
,,,,,,,,,,,,,,,,,,2019-05-23_19h05.03.611,Probabilistic Learning,3.1.0,60,,,,,,,,1,0,6,3,1,5,hiragana4.xlsx,hiragana41.xlsx,,,,,,,,,,,,,,,,,c,0.113,2,0,92,30,1,91,R,M,B,E,,m,,
,,,,,,,,,,,,,,,,,,2019-05-23_19h05.03.611,Probabilistic Learning,3.1.0,60,,,,,,,,1,0,6,3,1,5,hiragana4.xlsx,hiragana41.xlsx,,,,,,,,,,,,,,,,,m,0.247,2,0,92,15,1,91,k,M,A,E,c,,,
,,,,,,,,,,,,,,,,,,2019-05-23_19h05.03.611,Probabilistic Learning,3.1.0,60,,,,,,,,1,0,6,3,1,5,hiragana4.xlsx,hiragana41.xlsx,,,,,,,,,,,,,,,,,c,0.247,2,0,92,42,1,91,i,M,d,e,,,,
,,,,,,,,,,,,,,,,,,2019-05-23_19h05.03.611,Probabilistic Learning,3.1.0,60,,,,,,,,1,0,6,3,1,5,hiragana4.xlsx,hiragana41.xlsx,,,,,,,,,,,,,,,,,m,0.246,2,0,92,1,1,91,R,k,B,A,,,,
,,,,,,,,,,,,,,,,,,2019-05-23_19h05.03.611,Probabilistic Learning,3.1.0,60,,,,,,,,1,0,6,3,1,5,hiragana4.xlsx,hiragana41.xlsx,,,,,,,,,,,,,,,,,m,0.214,2,0,92,4,1,91,M,n,E,F,,,,
,,,,,,,,,,,,,,,,,,2019-05-23_19h05.03.611,Probabilistic Learning,3.1.0,60,,,,,,,,1,0,6,3,1,5,hiragana4.xlsx,hiragana41.xlsx,,,,,,,,,,,,,,,,,c,0.214,2,0,92,18,1,91,k,n,A,F,c,,,
,,,,,,,,,,,,,,,,,,2019-05-23_19h05.03.611,Probabilistic Learning,3.1.0,60,,,,,,,,1,0,6,3,1,5,hiragana4.xlsx,hiragana41.xlsx,,,,,,,,,,,,,,,,,m,0.146,2,0,92,41,1,91,n,c,f,c,,,,
,,,,,,,,,,,,,,,,,,2019-05-23_19h05.03.611,Probabilistic Learning,3.1.0,60,,,,,,,,1,0,6,3,1,5,hiragana4.xlsx,hiragana41.xlsx,,,,,,,,,,,,,,,,,m,0.247,2,0,92,14,1,91,k,M,A,E,c,,,
,,,,,,,,,,,,,,,,,,2019-05-23_19h05.03.611,Probabilistic Learning,3.1.0,60,,,,,,,,1,0,6,3,1,5,hiragana4.xlsx,hiragana41.xlsx,,,,,,,,,,,,,,,,,c,0.18,2,0,92,31,1,91,R,M,B,E,,m,,
,,,,,,,,,,,,,,,,,,2019-05-23_19h05.03.611,Probabilistic Learning,3.1.0,60,,,,,,,,1,0,6,3,1,5,hiragana4.xlsx,hiragana41.xlsx,,,,,,,,,,,,,,,,,m,0.346,2,0,92,40,1,91,c,n,c,f,,,,
,,,,,,,,,,,,,,,,,,2019-05-23_19h05.03.611,Probabilistic Learning,3.1.0,60,,,,,,,,1,0,6,3,1,5,hiragana4.xlsx,hiragana41.xlsx,,,,,,,,,,,,,,,,,m,0.262,2,0,92,32,1,91,M,R,E,B,,c,,
,,,,,,,,,,,,,,,,,,2019-05-23_19h05.03.611,Probabilistic Learning,3.1.0,60,,,,,,,,1,0,6,3,1,5,hiragana4.xlsx,hiragana41.xlsx,,,,,,,,,,,,,,,,,c,0.264,2,0,92,33,1,91,M,R,E,B,,c,,
,,,,,,,,,,,,,,,,,,2019-05-23_19h05.03.611,Probabilistic Learning,3.1.0,60,,,,,,,,1,0,6,3,1,5,hiragana4.xlsx,hiragana41.xlsx,,,,,,,,,,,,,,,,,m,0.213,2,0,92,27,1,91,R,i,B,D,,m,,
,,,,,,,,,,,,,,,,,,2019-05-23_19h05.03.611,Probabilistic Learning,3.1.0,60,,,,,,,,1,0,6,3,1,5,hiragana4.xlsx,hiragana41.xlsx,,,,,,,,,,,,,,,,,m,0.195,2,0,92,35,1,91,R,n,B,F,,m,,
,,,,,,,,,,,,,,,,,,2019-05-23_19h05.03.611,Probabilistic Learning,3.1.0,60,,,,,,,,1,0,6,3,1,5,hiragana4.xlsx,hiragana41.xlsx,,,,,,,,,,,,,,,,,c,0.112,2,0,92,24,1,91,c,R,C,B,,c,,
,,,,,,,,,,,,,,,,,,2019-05-23_19h05.03.611,Probabilistic Learning,3.1.0,60,,,,,,,,1,0,6,3,1,5,hiragana4.xlsx,hiragana41.xlsx,,,,,,,,,,,,,,,,,c,0.263,2,0,92,26,1,91,R,i,B,D,,m,,
,,,,,,,,,,,,,,,,,,2019-05-23_19h05.03.611,Probabilistic Learning,3.1.0,60,,,,,,,,1,0,6,3,1,5,hiragana4.xlsx,hiragana41.xlsx,,,,,,,,,,,,,,,,,c,0.214,2,0,92,13,1,91,i,k,D,A,m,,,
,,,,,,,,,,,,,,,,,,2019-05-23_19h05.03.611,Probabilistic Learning,3.1.0,60,,,,,,,,1,0,6,3,1,5,hiragana4.xlsx,hiragana41.xlsx,,,,,,,,,,,,,,,,,c,0.196,2,0,92,45,1,91,n,i,f,d,,,,
,,,,,,,,,,,,,,,,,,2019-05-23_19h05.03.611,Probabilistic Learning,3.1.0,60,,,,,,,,1,0,6,3,1,5,hiragana4.xlsx,hiragana41.xlsx,,,,,,,,,,,,,,,,,c,0.197,2,0,92,5,1,91,n,M,F,E,,,,
,,,,,,,,,,,,,,,,,,2019-05-23_19h05.03.611,Probabilistic Learning,3.1.0,60,,,,,,,,1,0,6,3,1,5,hiragana4.xlsx,hiragana41.xlsx,,,,,,,,,,,,,,,,,c,0.23,2,0,92,9,1,91,c,k,C,A,m,,,
,,,,,,,,,,,,,,,,,,2019-05-23_19h05.03.611,Probabilistic Learning,3.1.0,60,,,,,,,,1,0,6,3,1,5,hiragana4.xlsx,hiragana41.xlsx,,,,,,,,,,,,,,,,,c,0.23,2,0,92,0,1,91,k,R,A,B,,,,
,,,,,,,,,,,,,,,,,,2019-05-23_19h05.03.611,Probabilistic Learning,3.1.0,60,,,,,,,,1,0,6,3,1,5,hiragana4.xlsx,hiragana41.xlsx,,,,,,,,,,,,,,,,,m,0.214,2,0,92,12,1,91,i,k,D,A,m,,,
,,,,,,,,,,,,,,,,,,2019-05-23_19h05.03.611,Probabilistic Learning,3.1.0,60,,,,,,,,1,0,6,3,1,5,hiragana4.xlsx,hiragana41.xlsx,,,,,,,,,,,,,,,,,m,0.129,2,0,92,7,1,91,k,c,A,C,c,,,
,,,,,,,,,,,,,,,,,,2019-05-23_19h05.03.611,Probabilistic Learning,3.1.0,60,,,,,,,,1,0,6,3,1,5,hiragana4.xlsx,hiragana41.xlsx,,,,,,,,,,,,,,,,,c,0.212,2,0,92,19,1,91,k,n,A,F,c,,,
,,,,,,,,,,,,,,,,,,2019-05-23_19h05.03.611,Probabilistic Learning,3.1.0,60,,,,,,,,1,0,6,3,1,5,hiragana4.xlsx,hiragana41.xlsx,,,,,,,,,,,,,,,,,m,0.214,2,0,92,20,1,91,n,k,F,A,m,,,
,,,,,,,,,,,,,,,,,,2019-05-23_19h05.03.611,Probabilistic Learning,3.1.0,60,,,,,,,,1,0,6,3,1,5,hiragana4.xlsx,hiragana41.xlsx,,,,,,,,,,,,,,,,,,,,,,,,,,,,,,,space,1.898
,,,,,,,,,,,,,,,,,,2019-05-23_19h05.03.611,Probabilistic Learning,3.1.0,60,,,space,1.163,m,0,0.529,1,0,6,1,1,5,hiragana2.xlsx,hiragana21.xlsx,6,0,180,18,1,179,b,o,c,,m,,,,,,,,,,,,,,,,,,,,,
,,,,,,,,,,,,,,,,,,2019-05-23_19h05.03.611,Probabilistic Learning,3.1.0,60,,,,,c,1,0.612,1,0,6,1,1,5,hiragana2.xlsx,hiragana21.xlsx,6,0,180,2,1,179,s,J,c,c,,,,,,,,,,,,,,,,,,,,,,
,,,,,,,,,,,,,,,,,,2019-05-23_19h05.03.611,Probabilistic Learning,3.1.0,60,,,,,c,0,0.512,1,0,6,1,1,5,hiragana2.xlsx,hiragana21.xlsx,6,0,180,23,1,179,W,V,m,,,m,,,,,,,,,,,,,,,,,,,,
,,,,,,,,,,,,,,,,,,2019-05-23_19h05.03.611,Probabilistic Learning,3.1.0,60,,,,,c,1,0.513,1,0,6,1,1,5,hiragana2.xlsx,hiragana21.xlsx,6,0,180,11,1,179,o,b,c,,c,,,,,,,,,,,,,,,,,,,,,
,,,,,,,,,,,,,,,,,,2019-05-23_19h05.03.611,Probabilistic Learning,3.1.0,60,,,,,c,1,0.564,1,0,6,1,1,5,hiragana2.xlsx,hiragana21.xlsx,6,0,180,3,1,179,s,J,c,c,,,,,,,,,,,,,,,,,,,,,,
,,,,,,,,,,,,,,,,,,2019-05-23_19h05.03.611,Probabilistic Learning,3.1.0,60,,,,,m,1,0.581,1,0,6,1,1,5,hiragana2.xlsx,hiragana21.xlsx,6,0,180,27,1,179,V,W,m,,,c,,,,,,,,,,,,,,,,,,,,
,,,,,,,,,,,,,,,,,,2019-05-23_19h05.03.611,Probabilistic Learning,3.1.0,60,,,,,m,0,0.479,1,0,6,1,1,5,hiragana2.xlsx,hiragana21.xlsx,6,0,180,21,1,179,V,W,c,,,c,,,,,,,,,,,,,,,,,,,,
,,,,,,,,,,,,,,,,,,2019-05-23_19h05.03.611,Probabilistic Learning,3.1.0,60,,,,,m,0,0.38,1,0,6,1,1,5,hiragana2.xlsx,hiragana21.xlsx,6,0,180,22,1,179,V,W,c,,,c,,,,,,,,,,,,,,,,,,,,
,,,,,,,,,,,,,,,,,,2019-05-23_19h05.03.611,Probabilistic Learning,3.1.0,60,,,,,m,1,0.63,1,0,6,1,1,5,hiragana2.xlsx,hiragana21.xlsx,6,0,180,4,1,179,J,s,m,m,,,,,,,,,,,,,,,,,,,,,,
,,,,,,,,,,,,,,,,,,2019-05-23_19h05.03.611,Probabilistic Learning,3.1.0,60,,,,,c,1,0.481,1,0,6,1,1,5,hiragana2.xlsx,hiragana21.xlsx,6,0,180,13,1,179,o,b,c,,c,,,,,,,,,,,,,,,,,,,,,
,,,,,,,,,,,,,,,,,,2019-05-23_19h05.03.611,Probabilistic Learning,3.1.0,60,,,,,c,1,0.464,1,0,6,1,1,5,hiragana2.xlsx,hiragana21.xlsx,6,0,180,10,1,179,o,b,c,,c,,,,,,,,,,,,,,,,,,,,,
,,,,,,,,,,,,,,,,,,2019-05-23_19h05.03.611,Probabilistic Learning,3.1.0,60,,,,,m,1,0.514,1,0,6,1,1,5,hiragana2.xlsx,hiragana21.xlsx,6,0,180,8,1,179,s,J,m,c,,,,,,,,,,,,,,,,,,,,,,
,,,,,,,,,,,,,,,,,,2019-05-23_19h05.03.611,Probabilistic Learning,3.1.0,60,,,,,c,1,0.645,1,0,6,1,1,5,hiragana2.xlsx,hiragana21.xlsx,6,0,180,28,1,179,W,V,c,,,m,,,,,,,,,,,,,,,,,,,,
,,,,,,,,,,,,,,,,,,2019-05-23_19h05.03.611,Probabilistic Learning,3.1.0,60,,,,,c,1,0.429,1,0,6,1,1,5,hiragana2.xlsx,hiragana21.xlsx,6,0,180,9,1,179,J,s,c,m,,,,,,,,,,,,,,,,,,,,,,
,,,,,,,,,,,,,,,,,,2019-05-23_19h05.03.611,Probabilistic Learning,3.1.0,60,,,,,m,0,0.413,1,0,6,1,1,5,hiragana2.xlsx,hiragana21.xlsx,6,0,180,0,1,179,s,J,c,c,,,,,,,,,,,,,,,,,,,,,,
,,,,,,,,,,,,,,,,,,2019-05-23_19h05.03.611,Probabilistic Learning,3.1.0,60,,,,,m,0,0.364,1,0,6,1,1,5,hiragana2.xlsx,hiragana21.xlsx,6,0,180,1,1,179,s,J,c,c,,,,,,,,,,,,,,,,,,,,,,
,,,,,,,,,,,,,,,,,,2019-05-23_19h05.03.611,Probabilistic Learning,3.1.0,60,,,,,c,0,0.581,1,0,6,1,1,5,hiragana2.xlsx,hiragana21.xlsx,6,0,180,25,1,179,W,V,m,,,m,,,,,,,,,,,,,,,,,,,,
,,,,,,,,,,,,,,,,,,2019-05-23_19h05.03.611,Probabilistic Learning,3.1.0,60,,,,,m,0,0.714,1,0,6,1,1,5,hiragana2.xlsx,hiragana21.xlsx,6,0,180,17,1,179,b,o,c,,m,,,,,,,,,,,,,,,,,,,,,
,,,,,,,,,,,,,,,,,,2019-05-23_19h05.03.611,Probabilistic Learning,3.1.0,60,,,,,m,0,0.63,1,0,6,1,1,5,hiragana2.xlsx,hiragana21.xlsx,6,0,180,20,1,179,V,W,c,,,c,,,,,,,,,,,,,,,,,,,,
,,,,,,,,,,,,,,,,,,2019-05-23_19h05.03.611,Probabilistic Learning,3.1.0,60,,,,,m,1,0.447,1,0,6,1,1,5,hiragana2.xlsx,hiragana21.xlsx,6,0,180,26,1,179,V,W,m,,,c,,,,,,,,,,,,,,,,,,,,
,,,,,,,,,,,,,,,,,,2019-05-23_19h05.03.611,Probabilistic Learning,3.1.0,60,,,,,m,1,0.429,1,0,6,1,1,5,hiragana2.xlsx,hiragana21.xlsx,6,0,180,7,1,179,J,s,m,m,,,,,,,,,,,,,,,,,,,,,,
,,,,,,,,,,,,,,,,,,2019-05-23_19h05.03.611,Probabilistic Learning,3.1.0,60,,,,,c,0,0.414,1,0,6,1,1,5,hiragana2.xlsx,hiragana21.xlsx,6,0,180,5,1,179,J,s,m,m,,,,,,,,,,,,,,,,,,,,,,
,,,,,,,,,,,,,,,,,,2019-05-23_19h05.03.611,Probabilistic Learning,3.1.0,60,,,,,c,1,0.578,1,0,6,1,1,5,hiragana2.xlsx,hiragana21.xlsx,6,0,180,29,1,179,W,V,c,,,m,,,,,,,,,,,,,,,,,,,,
,,,,,,,,,,,,,,,,,,2019-05-23_19h05.03.611,Probabilistic Learning,3.1.0,60,,,,,m,1,0.564,1,0,6,1,1,5,hiragana2.xlsx,hiragana21.xlsx,6,0,180,16,1,179,b,o,m,,m,,,,,,,,,,,,,,,,,,,,,
,,,,,,,,,,,,,,,,,,2019-05-23_19h05.03.611,Probabilistic Learning,3.1.0,60,,,,,m,1,0.446,1,0,6,1,1,5,hiragana2.xlsx,hiragana21.xlsx,6,0,180,14,1,179,b,o,m,,m,,,,,,,,,,,,,,,,,,,,,
,,,,,,,,,,,,,,,,,,2019-05-23_19h05.03.611,Probabilistic Learning,3.1.0,60,,,,,m,1,0.631,1,0,6,1,1,5,hiragana2.xlsx,hiragana21.xlsx,6,0,180,6,1,179,J,s,m,m,,,,,,,,,,,,,,,,,,,,,,
,,,,,,,,,,,,,,,,,,2019-05-23_19h05.03.611,Probabilistic Learning,3.1.0,60,,,,,m,1,0.612,1,0,6,1,1,5,hiragana2.xlsx,hiragana21.xlsx,6,0,180,15,1,179,b,o,m,,m,,,,,,,,,,,,,,,,,,,,,
,,,,,,,,,,,,,,,,,,2019-05-23_19h05.03.611,Probabilistic Learning,3.1.0,60,,,,,c,1,0.512,1,0,6,1,1,5,hiragana2.xlsx,hiragana21.xlsx,6,0,180,12,1,179,o,b,c,,c,,,,,,,,,,,,,,,,,,,,,
,,,,,,,,,,,,,,,,,,2019-05-23_19h05.03.611,Probabilistic Learning,3.1.0,60,,,,,c,0,0.563,1,0,6,1,1,5,hiragana2.xlsx,hiragana21.xlsx,6,0,180,24,1,179,W,V,m,,,m,,,,,,,,,,,,,,,,,,,,
,,,,,,,,,,,,,,,,,,2019-05-23_19h05.03.611,Probabilistic Learning,3.1.0,60,,,,,c,0,0.464,1,0,6,1,1,5,hiragana2.xlsx,hiragana21.xlsx,6,0,180,19,1,179,o,b,m,,c,,,,,,,,,,,,,,,,,,,,,
,,,,,,,,,,,,,,,,,,2019-05-23_19h05.03.611,Probabilistic Learning,3.1.0,60,,,,,m,0,0.497,1,0,6,1,1,5,hiragana2.xlsx,hiragana21.xlsx,6,0,180,17,1,179,b,o,c,,m,,,,,,,,,,,,,,,,,,,,,
,,,,,,,,,,,,,,,,,,2019-05-23_19h05.03.611,Probabilistic Learning,3.1.0,60,,,,,c,1,0.463,1,0,6,1,1,5,hiragana2.xlsx,hiragana21.xlsx,6,0,180,28,1,179,W,V,c,,,m,,,,,,,,,,,,,,,,,,,,
,,,,,,,,,,,,,,,,,,2019-05-23_19h05.03.611,Probabilistic Learning,3.1.0,60,,,,,m,1,0.446,1,0,6,1,1,5,hiragana2.xlsx,hiragana21.xlsx,6,0,180,27,1,179,V,W,m,,,c,,,,,,,,,,,,,,,,,,,,
,,,,,,,,,,,,,,,,,,2019-05-23_19h05.03.611,Probabilistic Learning,3.1.0,60,,,,,m,0,0.364,1,0,6,1,1,5,hiragana2.xlsx,hiragana21.xlsx,6,0,180,21,1,179,V,W,c,,,c,,,,,,,,,,,,,,,,,,,,
,,,,,,,,,,,,,,,,,,2019-05-23_19h05.03.611,Probabilistic Learning,3.1.0,60,,,,,m,1,0.563,1,0,6,1,1,5,hiragana2.xlsx,hiragana21.xlsx,6,0,180,15,1,179,b,o,m,,m,,,,,,,,,,,,,,,,,,,,,
,,,,,,,,,,,,,,,,,,2019-05-23_19h05.03.611,Probabilistic Learning,3.1.0,60,,,,,c,1,0.397,1,0,6,1,1,5,hiragana2.xlsx,hiragana21.xlsx,6,0,180,11,1,179,o,b,c,,c,,,,,,,,,,,,,,,,,,,,,
,,,,,,,,,,,,,,,,,,2019-05-23_19h05.03.611,Probabilistic Learning,3.1.0,60,,,,,m,1,0.413,1,0,6,1,1,5,hiragana2.xlsx,hiragana21.xlsx,6,0,180,14,1,179,b,o,m,,m,,,,,,,,,,,,,,,,,,,,,
,,,,,,,,,,,,,,,,,,2019-05-23_19h05.03.611,Probabilistic Learning,3.1.0,60,,,,,m,0,0.646,1,0,6,1,1,5,hiragana2.xlsx,hiragana21.xlsx,6,0,180,9,1,179,J,s,c,m,,,,,,,,,,,,,,,,,,,,,,
,,,,,,,,,,,,,,,,,,2019-05-23_19h05.03.611,Probabilistic Learning,3.1.0,60,,,,,c,0,0.747,1,0,6,1,1,5,hiragana2.xlsx,hiragana21.xlsx,6,0,180,24,1,179,W,V,m,,,m,,,,,,,,,,,,,,,,,,,,
,,,,,,,,,,,,,,,,,,2019-05-23_19h05.03.611,Probabilistic Learning,3.1.0,60,,,,,m,1,0.48,1,0,6,1,1,5,hiragana2.xlsx,hiragana21.xlsx,6,0,180,7,1,179,J,s,m,m,,,,,,,,,,,,,,,,,,,,,,
,,,,,,,,,,,,,,,,,,2019-05-23_19h05.03.611,Probabilistic Learning,3.1.0,60,,,,,c,0,0.48,1,0,6,1,1,5,hiragana2.xlsx,hiragana21.xlsx,6,0,180,23,1,179,W,V,m,,,m,,,,,,,,,,,,,,,,,,,,
,,,,,,,,,,,,,,,,,,2019-05-23_19h05.03.611,Probabilistic Learning,3.1.0,60,,,,,c,1,0.48,1,0,6,1,1,5,hiragana2.xlsx,hiragana21.xlsx,6,0,180,1,1,179,s,J,c,c,,,,,,,,,,,,,,,,,,,,,,
,,,,,,,,,,,,,,,,,,2019-05-23_19h05.03.611,Probabilistic Learning,3.1.0,60,,,,,c,1,0.446,1,0,6,1,1,5,hiragana2.xlsx,hiragana21.xlsx,6,0,180,0,1,179,s,J,c,c,,,,,,,,,,,,,,,,,,,,,,
,,,,,,,,,,,,,,,,,,2019-05-23_19h05.03.611,Probabilistic Learning,3.1.0,60,,,,,c,1,0.881,1,0,6,1,1,5,hiragana2.xlsx,hiragana21.xlsx,6,0,180,20,1,179,V,W,c,,,c,,,,,,,,,,,,,,,,,,,,
,,,,,,,,,,,,,,,,,,2019-05-23_19h05.03.611,Probabilistic Learning,3.1.0,60,,,,,m,1,0.696,1,0,6,1,1,5,hiragana2.xlsx,hiragana21.xlsx,6,0,180,6,1,179,J,s,m,m,,,,,,,,,,,,,,,,,,,,,,
,,,,,,,,,,,,,,,,,,2019-05-23_19h05.03.611,Probabilistic Learning,3.1.0,60,,,,,m,1,0.545,1,0,6,1,1,5,hiragana2.xlsx,hiragana21.xlsx,6,0,180,25,1,179,W,V,m,,,m,,,,,,,,,,,,,,,,,,,,
,,,,,,,,,,,,,,,,,,2019-05-23_19h05.03.611,Probabilistic Learning,3.1.0,60,,,,,m,0,0.429,1,0,6,1,1,5,hiragana2.xlsx,hiragana21.xlsx,6,0,180,29,1,179,W,V,c,,,m,,,,,,,,,,,,,,,,,,,,
,,,,,,,,,,,,,,,,,,2019-05-23_19h05.03.611,Probabilistic Learning,3.1.0,60,,,,,c,1,0.512,1,0,6,1,1,5,hiragana2.xlsx,hiragana21.xlsx,6,0,180,22,1,179,V,W,c,,,c,,,,,,,,,,,,,,,,,,,,
,,,,,,,,,,,,,,,,,,2019-05-23_19h05.03.611,Probabilistic Learning,3.1.0,60,,,,,c,0,0.496,1,0,6,1,1,5,hiragana2.xlsx,hiragana21.xlsx,6,0,180,26,1,179,V,W,m,,,c,,,,,,,,,,,,,,,,,,,,
,,,,,,,,,,,,,,,,,,2019-05-23_19h05.03.611,Probabilistic Learning,3.1.0,60,,,,,m,1,0.529,1,0,6,1,1,5,hiragana2.xlsx,hiragana21.xlsx,6,0,180,4,1,179,J,s,m,m,,,,,,,,,,,,,,,,,,,,,,
,,,,,,,,,,,,,,,,,,2019-05-23_19h05.03.611,Probabilistic Learning,3.1.0,60,,,,,c,1,0.663,1,0,6,1,1,5,hiragana2.xlsx,hiragana21.xlsx,6,0,180,10,1,179,o,b,c,,c,,,,,,,,,,,,,,,,,,,,,
,,,,,,,,,,,,,,,,,,2019-05-23_19h05.03.611,Probabilistic Learning,3.1.0,60,,,,,m,1,0.946,1,0,6,1,1,5,hiragana2.xlsx,hiragana21.xlsx,6,0,180,16,1,179,b,o,m,,m,,,,,,,,,,,,,,,,,,,,,
,,,,,,,,,,,,,,,,,,2019-05-23_19h05.03.611,Probabilistic Learning,3.1.0,60,,,,,m,0,0.48,1,0,6,1,1,5,hiragana2.xlsx,hiragana21.xlsx,6,0,180,18,1,179,b,o,c,,m,,,,,,,,,,,,,,,,,,,,,
,,,,,,,,,,,,,,,,,,2019-05-23_19h05.03.611,Probabilistic Learning,3.1.0,60,,,,,c,1,0.463,1,0,6,1,1,5,hiragana2.xlsx,hiragana21.xlsx,6,0,180,13,1,179,o,b,c,,c,,,,,,,,,,,,,,,,,,,,,
,,,,,,,,,,,,,,,,,,2019-05-23_19h05.03.611,Probabilistic Learning,3.1.0,60,,,,,c,0,0.396,1,0,6,1,1,5,hiragana2.xlsx,hiragana21.xlsx,6,0,180,19,1,179,o,b,m,,c,,,,,,,,,,,,,,,,,,,,,
,,,,,,,,,,,,,,,,,,2019-05-23_19h05.03.611,Probabilistic Learning,3.1.0,60,,,,,m,1,0.479,1,0,6,1,1,5,hiragana2.xlsx,hiragana21.xlsx,6,0,180,5,1,179,J,s,m,m,,,,,,,,,,,,,,,,,,,,,,
,,,,,,,,,,,,,,,,,,2019-05-23_19h05.03.611,Probabilistic Learning,3.1.0,60,,,,,c,1,0.463,1,0,6,1,1,5,hiragana2.xlsx,hiragana21.xlsx,6,0,180,12,1,179,o,b,c,,c,,,,,,,,,,,,,,,,,,,,,
,,,,,,,,,,,,,,,,,,2019-05-23_19h05.03.611,Probabilistic Learning,3.1.0,60,,,,,c,0,0.563,1,0,6,1,1,5,hiragana2.xlsx,hiragana21.xlsx,6,0,180,8,1,179,s,J,m,c,,,,,,,,,,,,,,,,,,,,,,
,,,,,,,,,,,,,,,,,,2019-05-23_19h05.03.611,Probabilistic Learning,3.1.0,60,,,,,c,1,0.446,1,0,6,1,1,5,hiragana2.xlsx,hiragana21.xlsx,6,0,180,2,1,179,s,J,c,c,,,,,,,,,,,,,,,,,,,,,,
,,,,,,,,,,,,,,,,,,2019-05-23_19h05.03.611,Probabilistic Learning,3.1.0,60,,,,,c,1,0.413,1,0,6,1,1,5,hiragana2.xlsx,hiragana21.xlsx,6,0,180,3,1,179,s,J,c,c,,,,,,,,,,,,,,,,,,,,,,
,,,,,,,,,,,,,,,,,,2019-05-23_19h05.03.611,Probabilistic Learning,3.1.0,60,,,,,m,0,0.529,1,0,6,1,1,5,hiragana2.xlsx,hiragana21.xlsx,6,0,180,17,1,179,b,o,c,,m,,,,,,,,,,,,,,,,,,,,,
,,,,,,,,,,,,,,,,,,2019-05-23_19h05.03.611,Probabilistic Learning,3.1.0,60,,,,,m,1,0.513,1,0,6,1,1,5,hiragana2.xlsx,hiragana21.xlsx,6,0,180,26,1,179,V,W,m,,,c,,,,,,,,,,,,,,,,,,,,
,,,,,,,,,,,,,,,,,,2019-05-23_19h05.03.611,Probabilistic Learning,3.1.0,60,,,,,c,1,0.411,1,0,6,1,1,5,hiragana2.xlsx,hiragana21.xlsx,6,0,180,1,1,179,s,J,c,c,,,,,,,,,,,,,,,,,,,,,,
,,,,,,,,,,,,,,,,,,2019-05-23_19h05.03.611,Probabilistic Learning,3.1.0,60,,,,,c,1,0.397,1,0,6,1,1,5,hiragana2.xlsx,hiragana21.xlsx,6,0,180,0,1,179,s,J,c,c,,,,,,,,,,,,,,,,,,,,,,
,,,,,,,,,,,,,,,,,,2019-05-23_19h05.03.611,Probabilistic Learning,3.1.0,60,,,,,m,1,0.48,1,0,6,1,1,5,hiragana2.xlsx,hiragana21.xlsx,6,0,180,24,1,179,W,V,m,,,m,,,,,,,,,,,,,,,,,,,,
,,,,,,,,,,,,,,,,,,2019-05-23_19h05.03.611,Probabilistic Learning,3.1.0,60,,,,,m,1,0.413,1,0,6,1,1,5,hiragana2.xlsx,hiragana21.xlsx,6,0,180,25,1,179,W,V,m,,,m,,,,,,,,,,,,,,,,,,,,
,,,,,,,,,,,,,,,,,,2019-05-23_19h05.03.611,Probabilistic Learning,3.1.0,60,,,,,c,1,0.596,1,0,6,1,1,5,hiragana2.xlsx,hiragana21.xlsx,6,0,180,10,1,179,o,b,c,,c,,,,,,,,,,,,,,,,,,,,,
,,,,,,,,,,,,,,,,,,2019-05-23_19h05.03.611,Probabilistic Learning,3.1.0,60,,,,,c,1,0.479,1,0,6,1,1,5,hiragana2.xlsx,hiragana21.xlsx,6,0,180,20,1,179,V,W,c,,,c,,,,,,,,,,,,,,,,,,,,
,,,,,,,,,,,,,,,,,,2019-05-23_19h05.03.611,Probabilistic Learning,3.1.0,60,,,,,m,1,0.614,1,0,6,1,1,5,hiragana2.xlsx,hiragana21.xlsx,6,0,180,14,1,179,b,o,m,,m,,,,,,,,,,,,,,,,,,,,,
,,,,,,,,,,,,,,,,,,2019-05-23_19h05.03.611,Probabilistic Learning,3.1.0,60,,,,,c,1,0.362,1,0,6,1,1,5,hiragana2.xlsx,hiragana21.xlsx,6,0,180,22,1,179,V,W,c,,,c,,,,,,,,,,,,,,,,,,,,
,,,,,,,,,,,,,,,,,,2019-05-23_19h05.03.611,Probabilistic Learning,3.1.0,60,,,,,m,0,0.479,1,0,6,1,1,5,hiragana2.xlsx,hiragana21.xlsx,6,0,180,29,1,179,W,V,c,,,m,,,,,,,,,,,,,,,,,,,,
,,,,,,,,,,,,,,,,,,2019-05-23_19h05.03.611,Probabilistic Learning,3.1.0,60,,,,,c,1,0.363,1,0,6,1,1,5,hiragana2.xlsx,hiragana21.xlsx,,,,,,,,,,,,,space,0.931,space,1.078,m,0.429,2,0,92,39,1,91,V,o,e,c,,,,
,,,,,,,,,,,,,,,,,,2019-05-23_19h05.03.611,Probabilistic Learning,3.1.0,60,,,,,,,,1,0,6,1,1,5,hiragana2.xlsx,hiragana21.xlsx,,,,,,,,,,,,,,,,,c,0.547,2,0,92,16,1,91,V,s,E,A,m,,,
,,,,,,,,,,,,,,,,,,2019-05-23_19h05.03.611,Probabilistic Learning,3.1.0,60,,,,,,,,1,0,6,1,1,5,hiragana2.xlsx,hiragana21.xlsx,,,,,,,,,,,,,,,,,m,0.229,2,0,92,41,1,91,W,o,f,c,,,,
,,,,,,,,,,,,,,,,,,2019-05-23_19h05.03.611,Probabilistic Learning,3.1.0,60,,,,,,,,1,0,6,1,1,5,hiragana2.xlsx,hiragana21.xlsx,,,,,,,,,,,,,,,,,c,0.196,2,0,92,30,1,91,J,V,B,E,,m,,
,,,,,,,,,,,,,,,,,,2019-05-23_19h05.03.611,Probabilistic Learning,3.1.0,60,,,,,,,,1,0,6,1,1,5,hiragana2.xlsx,hiragana21.xlsx,,,,,,,,,,,,,,,,,m,0.296,2,0,92,2,1,91,o,b,C,D,,,,
,,,,,,,,,,,,,,,,,,2019-05-23_19h05.03.611,Probabilistic Learning,3.1.0,60,,,,,,,,1,0,6,1,1,5,hiragana2.xlsx,hiragana21.xlsx,,,,,,,,,,,,,,,,,c,0.245,2,0,92,35,1,91,J,W,B,F,,m,,
,,,,,,,,,,,,,,,,,,2019-05-23_19h05.03.611,Probabilistic Learning,3.1.0,60,,,,,,,,1,0,6,1,1,5,hiragana2.xlsx,hiragana21.xlsx,,,,,,,,,,,,,,,,,c,0.095,2,0,92,6,1,91,s,o,A,C,c,,,
,,,,,,,,,,,,,,,,,,2019-05-23_19h05.03.611,Probabilistic Learning,3.1.0,60,,,,,,,,1,0,6,1,1,5,hiragana2.xlsx,hiragana21.xlsx,,,,,,,,,,,,,,,,,c,0.163,2,0,92,29,1,91,b,J,D,B,,c,,
,,,,,,,,,,,,,,,,,,2019-05-23_19h05.03.611,Probabilistic Learning,3.1.0,60,,,,,,,,1,0,6,1,1,5,hiragana2.xlsx,hiragana21.xlsx,,,,,,,,,,,,,,,,,c,0.014,2,0,92,12,1,91,b,s,D,A,m,,,
,,,,,,,,,,,,,,,,,,2019-05-23_19h05.03.611,Probabilistic Learning,3.1.0,60,,,,,,,,1,0,6,1,1,5,hiragana2.xlsx,hiragana21.xlsx,,,,,,,,,,,,,,,,,c,0.13,2,0,92,5,1,91,W,V,F,E,,,,
,,,,,,,,,,,,,,,,,,2019-05-23_19h05.03.611,Probabilistic Learning,3.1.0,60,,,,,,,,1,0,6,1,1,5,hiragana2.xlsx,hiragana21.xlsx,,,,,,,,,,,,,,,,,m,0.114,2,0,92,32,1,91,V,J,E,B,,c,,
,,,,,,,,,,,,,,,,,,2019-05-23_19h05.03.611,Probabilistic Learning,3.1.0,60,,,,,,,,1,0,6,1,1,5,hiragana2.xlsx,hiragana21.xlsx,,,,,,,,,,,,,,,,,m,0.064,2,0,92,37,1,91,W,J,F,B,,c,,
,,,,,,,,,,,,,,,,,,2019-05-23_19h05.03.611,Probabilistic Learning,3.1.0,60,,,,,,,,1,0,6,1,1,5,hiragana2.xlsx,hiragana21.xlsx,,,,,,,,,,,,,,,,,m,0.012,2,0,92,21,1,91,W,s,F,A,m,,,
,,,,,,,,,,,,,,,,,,2019-05-23_19h05.03.611,Probabilistic Learning,3.1.0,60,,,,,,,,1,0,6,1,1,5,hiragana2.xlsx,hiragana21.xlsx,,,,,,,,,,,,,,,,,c,0.279,2,0,92,42,1,91,b,V,d,e,,,,
,,,,,,,,,,,,,,,,,,2019-05-23_19h05.03.611,Probabilistic Learning,3.1.0,60,,,,,,,,1,0,6,1,1,5,hiragana2.xlsx,hiragana21.xlsx,,,,,,,,,,,,,,,,,m,0.13,2,0,92,40,1,91,o,W,c,f,,,,
,,,,,,,,,,,,,,,,,,2019-05-23_19h05.03.611,Probabilistic Learning,3.1.0,60,,,,,,,,1,0,6,1,1,5,hiragana2.xlsx,hiragana21.xlsx,,,,,,,,,,,,,,,,,m,0.364,2,0,92,8,1,91,o,s,C,A,m,,,
,,,,,,,,,,,,,,,,,,2019-05-23_19h05.03.611,Probabilistic Learning,3.1.0,60,,,,,,,,1,0,6,1,1,5,hiragana2.xlsx,hiragana21.xlsx,,,,,,,,,,,,,,,,,m,0.196,2,0,92,31,1,91,J,V,B,E,,m,,
,,,,,,,,,,,,,,,,,,2019-05-23_19h05.03.611,Probabilistic Learning,3.1.0,60,,,,,,,,1,0,6,1,1,5,hiragana2.xlsx,hiragana21.xlsx,,,,,,,,,,,,,,,,,m,0.247,2,0,92,24,1,91,o,J,C,B,,c,,
,,,,,,,,,,,,,,,,,,2019-05-23_19h05.03.611,Probabilistic Learning,3.1.0,60,,,,,,,,1,0,6,1,1,5,hiragana2.xlsx,hiragana21.xlsx,,,,,,,,,,,,,,,,,c,0.297,2,0,92,23,1,91,J,o,B,C,,m,,
,,,,,,,,,,,,,,,,,,2019-05-23_19h05.03.611,Probabilistic Learning,3.1.0,60,,,,,,,,1,0,6,1,1,5,hiragana2.xlsx,hiragana21.xlsx,,,,,,,,,,,,,,,,,c,0.161,2,0,92,3,1,91,b,o,D,C,,,,
,,,,,,,,,,,,,,,,,,2019-05-23_19h05.03.611,Probabilistic Learning,3.1.0,60,,,,,,,,1,0,6,1,1,5,hiragana2.xlsx,hiragana21.xlsx,,,,,,,,,,,,,,,,,c,0.097,2,0,92,44,1,91,b,W,d,f,,,,
,,,,,,,,,,,,,,,,,,2019-05-23_19h05.03.611,Probabilistic Learning,3.1.0,60,,,,,,,,1,0,6,1,1,5,hiragana2.xlsx,hiragana21.xlsx,,,,,,,,,,,,,,,,,m,0.23,2,0,92,22,1,91,J,o,B,C,,m,,
,,,,,,,,,,,,,,,,,,2019-05-23_19h05.03.611,Probabilistic Learning,3.1.0,60,,,,,,,,1,0,6,1,1,5,hiragana2.xlsx,hiragana21.xlsx,,,,,,,,,,,,,,,,,m,0.198,2,0,92,0,1,91,s,J,A,B,,,,
,,,,,,,,,,,,,,,,,,2019-05-23_19h05.03.611,Probabilistic Learning,3.1.0,60,,,,,,,,1,0,6,1,1,5,hiragana2.xlsx,hiragana21.xlsx,,,,,,,,,,,,,,,,,m,0.247,2,0,92,9,1,91,o,s,C,A,m,,,
,,,,,,,,,,,,,,,,,,2019-05-23_19h05.03.611,Probabilistic Learning,3.1.0,60,,,,,,,,1,0,6,1,1,5,hiragana2.xlsx,hiragana21.xlsx,,,,,,,,,,,,,,,,,m,0.164,2,0,92,26,1,91,J,b,B,D,,m,,
,,,,,,,,,,,,,,,,,,2019-05-23_19h05.03.611,Probabilistic Learning,3.1.0,60,,,,,,,,1,0,6,1,1,5,hiragana2.xlsx,hiragana21.xlsx,,,,,,,,,,,,,,,,,c,0.03,2,0,92,25,1,91,o,J,C,B,,c,,
,,,,,,,,,,,,,,,,,,2019-05-23_19h05.03.611,Probabilistic Learning,3.1.0,60,,,,,,,,1,0,6,1,1,5,hiragana2.xlsx,hiragana21.xlsx,,,,,,,,,,,,,,,,,c,0.264,2,0,92,33,1,91,V,J,E,B,,c,,
,,,,,,,,,,,,,,,,,,2019-05-23_19h05.03.611,Probabilistic Learning,3.1.0,60,,,,,,,,1,0,6,1,1,5,hiragana2.xlsx,hiragana21.xlsx,,,,,,,,,,,,,,,,,c,0.031,2,0,92,14,1,91,s,V,A,E,c,,,
,,,,,,,,,,,,,,,,,,2019-05-23_19h05.03.611,Probabilistic Learning,3.1.0,60,,,,,,,,1,0,6,1,1,5,hiragana2.xlsx,hiragana21.xlsx,,,,,,,,,,,,,,,,,c,0.23,2,0,92,43,1,91,V,b,e,d,,,,
,,,,,,,,,,,,,,,,,,2019-05-23_19h05.03.611,Probabilistic Learning,3.1.0,60,,,,,,,,1,0,6,1,1,5,hiragana2.xlsx,hiragana21.xlsx,,,,,,,,,,,,,,,,,c,0.228,2,0,92,20,1,91,W,s,F,A,m,,,
,,,,,,,,,,,,,,,,,,2019-05-23_19h05.03.611,Probabilistic Learning,3.1.0,60,,,,,,,,1,0,6,1,1,5,hiragana2.xlsx,hiragana21.xlsx,,,,,,,,,,,,,,,,,c,0.03,2,0,92,4,1,91,V,W,E,F,,,,
,,,,,,,,,,,,,,,,,,2019-05-23_19h05.03.611,Probabilistic Learning,3.1.0,60,,,,,,,,1,0,6,1,1,5,hiragana2.xlsx,hiragana21.xlsx,,,,,,,,,,,,,,,,,m,0.281,2,0,92,18,1,91,s,W,A,F,c,,,
,,,,,,,,,,,,,,,,,,2019-05-23_19h05.03.611,Probabilistic Learning,3.1.0,60,,,,,,,,1,0,6,1,1,5,hiragana2.xlsx,hiragana21.xlsx,,,,,,,,,,,,,,,,,c,0.132,2,0,92,17,1,91,V,s,E,A,m,,,
,,,,,,,,,,,,,,,,,,2019-05-23_19h05.03.611,Probabilistic Learning,3.1.0,60,,,,,,,,1,0,6,1,1,5,hiragana2.xlsx,hiragana21.xlsx,,,,,,,,,,,,,,,,,c,0.147,2,0,92,27,1,91,J,b,B,D,,m,,
,,,,,,,,,,,,,,,,,,2019-05-23_19h05.03.611,Probabilistic Learning,3.1.0,60,,,,,,,,1,0,6,1,1,5,hiragana2.xlsx,hiragana21.xlsx,,,,,,,,,,,,,,,,,c,0.196,2,0,92,13,1,91,b,s,D,A,m,,,
,,,,,,,,,,,,,,,,,,2019-05-23_19h05.03.611,Probabilistic Learning,3.1.0,60,,,,,,,,1,0,6,1,1,5,hiragana2.xlsx,hiragana21.xlsx,,,,,,,,,,,,,,,,,c,0.297,2,0,92,28,1,91,b,J,D,B,,c,,
,,,,,,,,,,,,,,,,,,2019-05-23_19h05.03.611,Probabilistic Learning,3.1.0,60,,,,,,,,1,0,6,1,1,5,hiragana2.xlsx,hiragana21.xlsx,,,,,,,,,,,,,,,,,c,0.212,2,0,92,1,1,91,J,s,B,A,,,,
,,,,,,,,,,,,,,,,,,2019-05-23_19h05.03.611,Probabilistic Learning,3.1.0,60,,,,,,,,1,0,6,1,1,5,hiragana2.xlsx,hiragana21.xlsx,,,,,,,,,,,,,,,,,m,0.23,2,0,92,19,1,91,s,W,A,F,c,,,
,,,,,,,,,,,,,,,,,,2019-05-23_19h05.03.611,Probabilistic Learning,3.1.0,60,,,,,,,,1,0,6,1,1,5,hiragana2.xlsx,hiragana21.xlsx,,,,,,,,,,,,,,,,,m,0.214,2,0,92,45,1,91,W,b,f,d,,,,
,,,,,,,,,,,,,,,,,,2019-05-23_19h05.03.611,Probabilistic Learning,3.1.0,60,,,,,,,,1,0,6,1,1,5,hiragana2.xlsx,hiragana21.xlsx,,,,,,,,,,,,,,,,,m,0.247,2,0,92,36,1,91,W,J,F,B,,c,,
,,,,,,,,,,,,,,,,,,2019-05-23_19h05.03.611,Probabilistic Learning,3.1.0,60,,,,,,,,1,0,6,1,1,5,hiragana2.xlsx,hiragana21.xlsx,,,,,,,,,,,,,,,,,c,0.231,2,0,92,11,1,91,s,b,A,D,c,,,
,,,,,,,,,,,,,,,,,,2019-05-23_19h05.03.611,Probabilistic Learning,3.1.0,60,,,,,,,,1,0,6,1,1,5,hiragana2.xlsx,hiragana21.xlsx,,,,,,,,,,,,,,,,,m,0.047,2,0,92,10,1,91,s,b,A,D,c,,,
,,,,,,,,,,,,,,,,,,2019-05-23_19h05.03.611,Probabilistic Learning,3.1.0,60,,,,,,,,1,0,6,1,1,5,hiragana2.xlsx,hiragana21.xlsx,,,,,,,,,,,,,,,,,c,0.147,2,0,92,15,1,91,s,V,A,E,c,,,
,,,,,,,,,,,,,,,,,,2019-05-23_19h05.03.611,Probabilistic Learning,3.1.0,60,,,,,,,,1,0,6,1,1,5,hiragana2.xlsx,hiragana21.xlsx,,,,,,,,,,,,,,,,,c,0.08,2,0,92,7,1,91,s,o,A,C,c,,,
,,,,,,,,,,,,,,,,,,2019-05-23_19h05.03.611,Probabilistic Learning,3.1.0,60,,,,,,,,1,0,6,1,1,5,hiragana2.xlsx,hiragana21.xlsx,,,,,,,,,,,,,,,,,m,0.063,2,0,92,34,1,91,J,W,B,F,,m,,
,,,,,,,,,,,,,,,,,,2019-05-23_19h05.03.611,Probabilistic Learning,3.1.0,60,,,,,,,,1,0,6,1,1,5,hiragana2.xlsx,hiragana21.xlsx,,,,,,,,,,,,,,,,,m,0.263,2,0,92,38,1,91,o,V,C,E,,,,
,,,,,,,,,,,,,,,,,,2019-05-23_19h05.03.611,Probabilistic Learning,3.1.0,60,,,,,,,,1,0,6,1,1,5,hiragana2.xlsx,hiragana21.xlsx,,,,,,,,,,,,,,,,,m,0.196,2,0,92,6,1,91,s,o,A,C,c,,,
,,,,,,,,,,,,,,,,,,2019-05-23_19h05.03.611,Probabilistic Learning,3.1.0,60,,,,,,,,1,0,6,1,1,5,hiragana2.xlsx,hiragana21.xlsx,,,,,,,,,,,,,,,,,m,0.213,2,0,92,44,1,91,b,W,d,f,,,,
,,,,,,,,,,,,,,,,,,2019-05-23_19h05.03.611,Probabilistic Learning,3.1.0,60,,,,,,,,1,0,6,1,1,5,hiragana2.xlsx,hiragana21.xlsx,,,,,,,,,,,,,,,,,m,0.262,2,0,92,42,1,91,b,V,d,e,,,,
,,,,,,,,,,,,,,,,,,2019-05-23_19h05.03.611,Probabilistic Learning,3.1.0,60,,,,,,,,1,0,6,1,1,5,hiragana2.xlsx,hiragana21.xlsx,,,,,,,,,,,,,,,,,c,0.181,2,0,92,24,1,91,o,J,C,B,,c,,
,,,,,,,,,,,,,,,,,,2019-05-23_19h05.03.611,Probabilistic Learning,3.1.0,60,,,,,,,,1,0,6,1,1,5,hiragana2.xlsx,hiragana21.xlsx,,,,,,,,,,,,,,,,,c,0.064,2,0,92,14,1,91,s,V,A,E,c,,,
,,,,,,,,,,,,,,,,,,2019-05-23_19h05.03.611,Probabilistic Learning,3.1.0,60,,,,,,,,1,0,6,1,1,5,hiragana2.xlsx,hiragana21.xlsx,,,,,,,,,,,,,,,,,c,0.162,2,0,92,12,1,91,b,s,D,A,m,,,
,,,,,,,,,,,,,,,,,,2019-05-23_19h05.03.611,Probabilistic Learning,3.1.0,60,,,,,,,,1,0,6,1,1,5,hiragana2.xlsx,hiragana21.xlsx,,,,,,,,,,,,,,,,,m,0.331,2,0,92,37,1,91,W,J,F,B,,c,,
,,,,,,,,,,,,,,,,,,2019-05-23_19h05.03.611,Probabilistic Learning,3.1.0,60,,,,,,,,1,0,6,1,1,5,hiragana2.xlsx,hiragana21.xlsx,,,,,,,,,,,,,,,,,m,0.18,2,0,92,11,1,91,s,b,A,D,c,,,
,,,,,,,,,,,,,,,,,,2019-05-23_19h05.03.611,Probabilistic Learning,3.1.0,60,,,,,,,,1,0,6,1,1,5,hiragana2.xlsx,hiragana21.xlsx,,,,,,,,,,,,,,,,,m,0.196,2,0,92,2,1,91,o,b,C,D,,,,
,,,,,,,,,,,,,,,,,,2019-05-23_19h05.03.611,Probabilistic Learning,3.1.0,60,,,,,,,,1,0,6,1,1,5,hiragana2.xlsx,hiragana21.xlsx,,,,,,,,,,,,,,,,,m,0.063,2,0,92,15,1,91,s,V,A,E,c,,,
,,,,,,,,,,,,,,,,,,2019-05-23_19h05.03.611,Probabilistic Learning,3.1.0,60,,,,,,,,1,0,6,1,1,5,hiragana2.xlsx,hiragana21.xlsx,,,,,,,,,,,,,,,,,m,0.363,2,0,92,18,1,91,s,W,A,F,c,,,
,,,,,,,,,,,,,,,,,,2019-05-23_19h05.03.611,Probabilistic Learning,3.1.0,60,,,,,,,,1,0,6,1,1,5,hiragana2.xlsx,hiragana21.xlsx,,,,,,,,,,,,,,,,,c,0.197,2,0,92,34,1,91,J,W,B,F,,m,,
,,,,,,,,,,,,,,,,,,2019-05-23_19h05.03.611,Probabilistic Learning,3.1.0,60,,,,,,,,1,0,6,1,1,5,hiragana2.xlsx,hiragana21.xlsx,,,,,,,,,,,,,,,,,c,0.031,2,0,92,30,1,91,J,V,B,E,,m,,
,,,,,,,,,,,,,,,,,,2019-05-23_19h05.03.611,Probabilistic Learning,3.1.0,60,,,,,,,,1,0,6,1,1,5,hiragana2.xlsx,hiragana21.xlsx,,,,,,,,,,,,,,,,,c,0.229,2,0,92,1,1,91,J,s,B,A,,,,
,,,,,,,,,,,,,,,,,,2019-05-23_19h05.03.611,Probabilistic Learning,3.1.0,60,,,,,,,,1,0,6,1,1,5,hiragana2.xlsx,hiragana21.xlsx,,,,,,,,,,,,,,,,,c,0.214,2,0,92,7,1,91,s,o,A,C,c,,,
,,,,,,,,,,,,,,,,,,2019-05-23_19h05.03.611,Probabilistic Learning,3.1.0,60,,,,,,,,1,0,6,1,1,5,hiragana2.xlsx,hiragana21.xlsx,,,,,,,,,,,,,,,,,c,0.212,2,0,92,16,1,91,V,s,E,A,m,,,
,,,,,,,,,,,,,,,,,,2019-05-23_19h05.03.611,Probabilistic Learning,3.1.0,60,,,,,,,,1,0,6,1,1,5,hiragana2.xlsx,hiragana21.xlsx,,,,,,,,,,,,,,,,,m,0.197,2,0,92,21,1,91,W,s,F,A,m,,,
,,,,,,,,,,,,,,,,,,2019-05-23_19h05.03.611,Probabilistic Learning,3.1.0,60,,,,,,,,1,0,6,1,1,5,hiragana2.xlsx,hiragana21.xlsx,,,,,,,,,,,,,,,,,m,0.13,2,0,92,19,1,91,s,W,A,F,c,,,
,,,,,,,,,,,,,,,,,,2019-05-23_19h05.03.611,Probabilistic Learning,3.1.0,60,,,,,,,,1,0,6,1,1,5,hiragana2.xlsx,hiragana21.xlsx,,,,,,,,,,,,,,,,,m,0.063,2,0,92,39,1,91,V,o,e,c,,,,
,,,,,,,,,,,,,,,,,,2019-05-23_19h05.03.611,Probabilistic Learning,3.1.0,60,,,,,,,,1,0,6,1,1,5,hiragana2.xlsx,hiragana21.xlsx,,,,,,,,,,,,,,,,,m,0.231,2,0,92,41,1,91,W,o,f,c,,,,
,,,,,,,,,,,,,,,,,,2019-05-23_19h05.03.611,Probabilistic Learning,3.1.0,60,,,,,,,,1,0,6,1,1,5,hiragana2.xlsx,hiragana21.xlsx,,,,,,,,,,,,,,,,,c,0.147,2,0,92,45,1,91,W,b,f,d,,,,
,,,,,,,,,,,,,,,,,,2019-05-23_19h05.03.611,Probabilistic Learning,3.1.0,60,,,,,,,,1,0,6,1,1,5,hiragana2.xlsx,hiragana21.xlsx,,,,,,,,,,,,,,,,,m,0.079,2,0,92,13,1,91,b,s,D,A,m,,,
,,,,,,,,,,,,,,,,,,2019-05-23_19h05.03.611,Probabilistic Learning,3.1.0,60,,,,,,,,1,0,6,1,1,5,hiragana2.xlsx,hiragana21.xlsx,,,,,,,,,,,,,,,,,c,0.262,2,0,92,29,1,91,b,J,D,B,,c,,
,,,,,,,,,,,,,,,,,,2019-05-23_19h05.03.611,Probabilistic Learning,3.1.0,60,,,,,,,,1,0,6,1,1,5,hiragana2.xlsx,hiragana21.xlsx,,,,,,,,,,,,,,,,,m,0.181,2,0,92,4,1,91,V,W,E,F,,,,
,,,,,,,,,,,,,,,,,,2019-05-23_19h05.03.611,Probabilistic Learning,3.1.0,60,,,,,,,,1,0,6,1,1,5,hiragana2.xlsx,hiragana21.xlsx,,,,,,,,,,,,,,,,,c,0.195,2,0,92,33,1,91,V,J,E,B,,c,,
,,,,,,,,,,,,,,,,,,2019-05-23_19h05.03.611,Probabilistic Learning,3.1.0,60,,,,,,,,1,0,6,1,1,5,hiragana2.xlsx,hiragana21.xlsx,,,,,,,,,,,,,,,,,m,0.23,2,0,92,35,1,91,J,W,B,F,,m,,
,,,,,,,,,,,,,,,,,,2019-05-23_19h05.03.611,Probabilistic Learning,3.1.0,60,,,,,,,,1,0,6,1,1,5,hiragana2.xlsx,hiragana21.xlsx,,,,,,,,,,,,,,,,,c,0.197,2,0,92,26,1,91,J,b,B,D,,m,,
,,,,,,,,,,,,,,,,,,2019-05-23_19h05.03.611,Probabilistic Learning,3.1.0,60,,,,,,,,1,0,6,1,1,5,hiragana2.xlsx,hiragana21.xlsx,,,,,,,,,,,,,,,,,m,0.014,2,0,92,43,1,91,V,b,e,d,,,,
,,,,,,,,,,,,,,,,,,2019-05-23_19h05.03.611,Probabilistic Learning,3.1.0,60,,,,,,,,1,0,6,1,1,5,hiragana2.xlsx,hiragana21.xlsx,,,,,,,,,,,,,,,,,c,0.264,2,0,92,32,1,91,V,J,E,B,,c,,
,,,,,,,,,,,,,,,,,,2019-05-23_19h05.03.611,Probabilistic Learning,3.1.0,60,,,,,,,,1,0,6,1,1,5,hiragana2.xlsx,hiragana21.xlsx,,,,,,,,,,,,,,,,,m,0.231,2,0,92,27,1,91,J,b,B,D,,m,,
,,,,,,,,,,,,,,,,,,2019-05-23_19h05.03.611,Probabilistic Learning,3.1.0,60,,,,,,,,1,0,6,1,1,5,hiragana2.xlsx,hiragana21.xlsx,,,,,,,,,,,,,,,,,c,0.214,2,0,92,40,1,91,o,W,c,f,,,,
,,,,,,,,,,,,,,,,,,2019-05-23_19h05.03.611,Probabilistic Learning,3.1.0,60,,,,,,,,1,0,6,1,1,5,hiragana2.xlsx,hiragana21.xlsx,,,,,,,,,,,,,,,,,m,0.197,2,0,92,36,1,91,W,J,F,B,,c,,
,,,,,,,,,,,,,,,,,,2019-05-23_19h05.03.611,Probabilistic Learning,3.1.0,60,,,,,,,,1,0,6,1,1,5,hiragana2.xlsx,hiragana21.xlsx,,,,,,,,,,,,,,,,,c,0.113,2,0,92,20,1,91,W,s,F,A,m,,,
,,,,,,,,,,,,,,,,,,2019-05-23_19h05.03.611,Probabilistic Learning,3.1.0,60,,,,,,,,1,0,6,1,1,5,hiragana2.xlsx,hiragana21.xlsx,,,,,,,,,,,,,,,,,m,0.212,2,0,92,22,1,91,J,o,B,C,,m,,
,,,,,,,,,,,,,,,,,,2019-05-23_19h05.03.611,Probabilistic Learning,3.1.0,60,,,,,,,,1,0,6,1,1,5,hiragana2.xlsx,hiragana21.xlsx,,,,,,,,,,,,,,,,,c,0.029,2,0,92,0,1,91,s,J,A,B,,,,
,,,,,,,,,,,,,,,,,,2019-05-23_19h05.03.611,Probabilistic Learning,3.1.0,60,,,,,,,,1,0,6,1,1,5,hiragana2.xlsx,hiragana21.xlsx,,,,,,,,,,,,,,,,,c,0.23,2,0,92,23,1,91,J,o,B,C,,m,,
,,,,,,,,,,,,,,,,,,2019-05-23_19h05.03.611,Probabilistic Learning,3.1.0,60,,,,,,,,1,0,6,1,1,5,hiragana2.xlsx,hiragana21.xlsx,,,,,,,,,,,,,,,,,c,0.212,2,0,92,38,1,91,o,V,C,E,,,,
,,,,,,,,,,,,,,,,,,2019-05-23_19h05.03.611,Probabilistic Learning,3.1.0,60,,,,,,,,1,0,6,1,1,5,hiragana2.xlsx,hiragana21.xlsx,,,,,,,,,,,,,,,,,c,0.08,2,0,92,10,1,91,s,b,A,D,c,,,
,,,,,,,,,,,,,,,,,,2019-05-23_19h05.03.611,Probabilistic Learning,3.1.0,60,,,,,,,,1,0,6,1,1,5,hiragana2.xlsx,hiragana21.xlsx,,,,,,,,,,,,,,,,,c,0.148,2,0,92,17,1,91,V,s,E,A,m,,,
,,,,,,,,,,,,,,,,,,2019-05-23_19h05.03.611,Probabilistic Learning,3.1.0,60,,,,,,,,1,0,6,1,1,5,hiragana2.xlsx,hiragana21.xlsx,,,,,,,,,,,,,,,,,m,0.114,2,0,92,25,1,91,o,J,C,B,,c,,
,,,,,,,,,,,,,,,,,,2019-05-23_19h05.03.611,Probabilistic Learning,3.1.0,60,,,,,,,,1,0,6,1,1,5,hiragana2.xlsx,hiragana21.xlsx,,,,,,,,,,,,,,,,,c,0.163,2,0,92,28,1,91,b,J,D,B,,c,,
,,,,,,,,,,,,,,,,,,2019-05-23_19h05.03.611,Probabilistic Learning,3.1.0,60,,,,,,,,1,0,6,1,1,5,hiragana2.xlsx,hiragana21.xlsx,,,,,,,,,,,,,,,,,m,0.196,2,0,92,31,1,91,J,V,B,E,,m,,
,,,,,,,,,,,,,,,,,,2019-05-23_19h05.03.611,Probabilistic Learning,3.1.0,60,,,,,,,,1,0,6,1,1,5,hiragana2.xlsx,hiragana21.xlsx,,,,,,,,,,,,,,,,,c,0.045,2,0,92,3,1,91,b,o,D,C,,,,
,,,,,,,,,,,,,,,,,,2019-05-23_19h05.03.611,Probabilistic Learning,3.1.0,60,,,,,,,,1,0,6,1,1,5,hiragana2.xlsx,hiragana21.xlsx,,,,,,,,,,,,,,,,,c,0.313,2,0,92,8,1,91,o,s,C,A,m,,,
,,,,,,,,,,,,,,,,,,2019-05-23_19h05.03.611,Probabilistic Learning,3.1.0,60,,,,,,,,1,0,6,1,1,5,hiragana2.xlsx,hiragana21.xlsx,,,,,,,,,,,,,,,,,c,0.18,2,0,92,9,1,91,o,s,C,A,m,,,
,,,,,,,,,,,,,,,,,,2019-05-23_19h05.03.611,Probabilistic Learning,3.1.0,60,,,,,,,,1,0,6,1,1,5,hiragana2.xlsx,hiragana21.xlsx,,,,,,,,,,,,,,,,,m,0.245,2,0,92,5,1,91,W,V,F,E,,,,
,,,,,,,,,,,,,,,,,,2019-05-23_19h05.03.611,Probabilistic Learning,3.1.0,60,,,,,,,,1,0,6,1,1,5,hiragana2.xlsx,hiragana21.xlsx,,,,,,,,,,,,,,,,,,,,,,,,,,,,,,,space,1.465
,,,,,,,,,,,,,,,,,,2019-05-23_19h05.03.611,Probabilistic Learning,3.1.0,60,,,space,1.731,c,1,0.645,1,0,6,2,1,5,hiragana3.xlsx,hiragana31.xlsx,6,0,180,17,1,179,e,f,c,,m,,,,,,,,,,,,,,,,,,,,,
,,,,,,,,,,,,,,,,,,2019-05-23_19h05.03.611,Probabilistic Learning,3.1.0,60,,,,,c,1,0.225,1,0,6,2,1,5,hiragana3.xlsx,hiragana31.xlsx,6,0,180,0,1,179,P,t,c,c,,,,,,,,,,,,,,,,,,,,,,
,,,,,,,,,,,,,,,,,,2019-05-23_19h05.03.611,Probabilistic Learning,3.1.0,60,,,,,c,1,0.08,1,0,6,2,1,5,hiragana3.xlsx,hiragana31.xlsx,6,0,180,9,1,179,t,P,c,m,,,,,,,,,,,,,,,,,,,,,,
,,,,,,,,,,,,,,,,,,2019-05-23_19h05.03.611,Probabilistic Learning,3.1.0,60,,,,,m,0,0.23,1,0,6,2,1,5,hiragana3.xlsx,hiragana31.xlsx,6,0,180,18,1,179,e,f,c,,m,,,,,,,,,,,,,,,,,,,,,
