welc_resp.keys,welc_resp.rt,instr0_resp.keys,instr0_resp.rt,prep_resp.keys,prep_resp.corr,prep_resp.rt,preparation.thisRepN,preparation.thisTrialN,preparation.thisN,preparation.thisIndex,preparation.ran,preparation.order,letter10,letter20,corrAns0,participant,,date,expName,psychopyVersion,frameRate,outro_resp.keys,outro_resp.rt,instr1_resp.keys,instr1_resp.rt,resp.keys,resp.corr,resp.rt,letterMaster.thisRepN,letterMaster.thisTrialN,letterMaster.thisN,letterMaster.thisIndex,letterMaster.ran,letterMaster.order,letterset,letterset2,practice.thisRepN,practice.thisTrialN,practice.thisN,practice.thisIndex,practice.ran,practice.order,letter1,letter2,corrAns,letterA,letterC,letterE,instr2_resp.keys,instr2_resp.rt,instr3_resp.keys,instr3_resp.rt,test_resp.keys,test_resp.rt,test.thisRepN,test.thisTrialN,test.thisN,test.thisIndex,test.ran,test.order,letter3,letter4,letterA2,letterB2,pickA,avoidB,outro_resp2.keys,outro_resp2.rt
space,5.054,space,0.788,m,1,0.506,1,0,10,9,1,9,U,L,m,,,2019-05-23_19h57.38.185,Probabilistic Learning,3.1.0,60,,,,,,,,,,,,,,,,,,,,,,,,,,,,,,,,,,,,,,,,,,,,,,,
,,,,m,0,0.014,1,0,10,6,1,9,U,L,c,,,2019-05-23_19h57.38.185,Probabilistic Learning,3.1.0,60,,,,,,,,,,,,,,,,,,,,,,,,,,,,,,,,,,,,,,,,,,,,,,,
,,,,m,0,0.212,1,0,10,5,1,9,U,L,c,,,2019-05-23_19h57.38.185,Probabilistic Learning,3.1.0,60,,,,,,,,,,,,,,,,,,,,,,,,,,,,,,,,,,,,,,,,,,,,,,,
,,,,,0,,1,0,10,8,1,9,L,U,c,,,2019-05-23_19h57.38.185,Probabilistic Learning,3.1.0,60,,,,,,,,,,,,,,,,,,,,,,,,,,,,,,,,,,,,,,,,,,,,,,,
,,,,,0,,1,0,10,3,1,9,L,U,m,,,2019-05-23_19h57.38.185,Probabilistic Learning,3.1.0,60,,,,,,,,,,,,,,,,,,,,,,,,,,,,,,,,,,,,,,,,,,,,,,,
,,,,,0,,1,0,10,1,1,9,U,L,c,,,2019-05-23_19h57.38.185,Probabilistic Learning,3.1.0,60,,,,,,,,,,,,,,,,,,,,,,,,,,,,,,,,,,,,,,,,,,,,,,,
,,,,,0,,1,0,10,0,1,9,U,L,c,,,2019-05-23_19h57.38.185,Probabilistic Learning,3.1.0,60,,,,,,,,,,,,,,,,,,,,,,,,,,,,,,,,,,,,,,,,,,,,,,,
,,,,,0,,1,0,10,2,1,9,L,U,m,,,2019-05-23_19h57.38.185,Probabilistic Learning,3.1.0,60,,,,,,,,,,,,,,,,,,,,,,,,,,,,,,,,,,,,,,,,,,,,,,,
,,,,,0,,1,0,10,7,1,9,L,U,m,,,2019-05-23_19h57.38.185,Probabilistic Learning,3.1.0,60,,,,,,,,,,,,,,,,,,,,,,,,,,,,,,,,,,,,,,,,,,,,,,,
,,,,,0,,1,0,10,4,1,9,U,L,c,,,2019-05-23_19h57.38.185,Probabilistic Learning,3.1.0,60,,,,,,,,,,,,,,,,,,,,,,,,,,,,,,,,,,,,,,,,,,,,,,,
,,,,,,,,,,,,,,,,,,2019-05-23_19h57.38.185,Probabilistic Learning,3.1.0,60,space,1.377,space,0.926,c,1,0.876,1,0,6,0,1,5,hiragana1.xlsx,hiragana11.xlsx,6,0,180,13,1,179,O,d,c,,c,,,,,,,,,,,,,,,,,,,,,
,,,,,,,,,,,,,,,,,,2019-05-23_19h57.38.185,Probabilistic Learning,3.1.0,60,,,,,c,1,0.543,1,0,6,0,1,5,hiragana1.xlsx,hiragana11.xlsx,6,0,180,22,1,179,I,L,c,,,c,,,,,,,,,,,,,,,,,,,,
,,,,,,,,,,,,,,,,,,2019-05-23_19h57.38.185,Probabilistic Learning,3.1.0,60,,,,,m,0,0.344,1,0,6,0,1,5,hiragana1.xlsx,hiragana11.xlsx,6,0,180,29,1,179,L,I,c,,,m,,,,,,,,,,,,,,,,,,,,
,,,,,,,,,,,,,,,,,,2019-05-23_19h57.38.185,Probabilistic Learning,3.1.0,60,,,,,c,0,0.392,1,0,6,0,1,5,hiragana1.xlsx,hiragana11.xlsx,6,0,180,8,1,179,A,a,m,c,,,,,,,,,,,,,,,,,,,,,,
,,,,,,,,,,,,,,,,,,2019-05-23_19h57.38.185,Probabilistic Learning,3.1.0,60,,,,,c,1,0.428,1,0,6,0,1,5,hiragana1.xlsx,hiragana11.xlsx,6,0,180,20,1,179,I,L,c,,,c,,,,,,,,,,,,,,,,,,,,
,,,,,,,,,,,,,,,,,,2019-05-23_19h57.38.185,Probabilistic Learning,3.1.0,60,,,,,m,1,0.395,1,0,6,0,1,5,hiragana1.xlsx,hiragana11.xlsx,6,0,180,7,1,179,a,A,m,m,,,,,,,,,,,,,,,,,,,,,,
,,,,,,,,,,,,,,,,,,2019-05-23_19h57.38.185,Probabilistic Learning,3.1.0,60,,,,,m,0,0.413,1,0,6,0,1,5,hiragana1.xlsx,hiragana11.xlsx,6,0,180,9,1,179,a,A,c,m,,,,,,,,,,,,,,,,,,,,,,
,,,,,,,,,,,,,,,,,,2019-05-23_19h57.38.185,Probabilistic Learning,3.1.0,60,,,,,c,1,0.394,1,0,6,0,1,5,hiragana1.xlsx,hiragana11.xlsx,6,0,180,2,1,179,A,a,c,c,,,,,,,,,,,,,,,,,,,,,,
,,,,,,,,,,,,,,,,,,2019-05-23_19h57.38.185,Probabilistic Learning,3.1.0,60,,,,,m,1,0.377,1,0,6,0,1,5,hiragana1.xlsx,hiragana11.xlsx,6,0,180,24,1,179,L,I,m,,,m,,,,,,,,,,,,,,,,,,,,
,,,,,,,,,,,,,,,,,,2019-05-23_19h57.38.185,Probabilistic Learning,3.1.0,60,,,,,m,1,0.428,1,0,6,0,1,5,hiragana1.xlsx,hiragana11.xlsx,6,0,180,14,1,179,d,O,m,,m,,,,,,,,,,,,,,,,,,,,,
,,,,,,,,,,,,,,,,,,2019-05-23_19h57.38.185,Probabilistic Learning,3.1.0,60,,,,,m,1,0.346,1,0,6,0,1,5,hiragana1.xlsx,hiragana11.xlsx,6,0,180,5,1,179,a,A,m,m,,,,,,,,,,,,,,,,,,,,,,
,,,,,,,,,,,,,,,,,,2019-05-23_19h57.38.185,Probabilistic Learning,3.1.0,60,,,,,m,1,0.378,1,0,6,0,1,5,hiragana1.xlsx,hiragana11.xlsx,6,0,180,25,1,179,L,I,m,,,m,,,,,,,,,,,,,,,,,,,,
,,,,,,,,,,,,,,,,,,2019-05-23_19h57.38.185,Probabilistic Learning,3.1.0,60,,,,,c,0,0.444,1,0,6,0,1,5,hiragana1.xlsx,hiragana11.xlsx,6,0,180,19,1,179,O,d,m,,c,,,,,,,,,,,,,,,,,,,,,
,,,,,,,,,,,,,,,,,,2019-05-23_19h57.38.185,Probabilistic Learning,3.1.0,60,,,,,c,1,0.376,1,0,6,0,1,5,hiragana1.xlsx,hiragana11.xlsx,6,0,180,21,1,179,I,L,c,,,c,,,,,,,,,,,,,,,,,,,,
,,,,,,,,,,,,,,,,,,2019-05-23_19h57.38.185,Probabilistic Learning,3.1.0,60,,,,,c,0,0.344,1,0,6,0,1,5,hiragana1.xlsx,hiragana11.xlsx,6,0,180,27,1,179,I,L,m,,,c,,,,,,,,,,,,,,,,,,,,
,,,,,,,,,,,,,,,,,,2019-05-23_19h57.38.185,Probabilistic Learning,3.1.0,60,,,,,m,1,0.412,1,0,6,0,1,5,hiragana1.xlsx,hiragana11.xlsx,6,0,180,16,1,179,d,O,m,,m,,,,,,,,,,,,,,,,,,,,,
,,,,,,,,,,,,,,,,,,2019-05-23_19h57.38.185,Probabilistic Learning,3.1.0,60,,,,,c,1,0.394,1,0,6,0,1,5,hiragana1.xlsx,hiragana11.xlsx,6,0,180,1,1,179,A,a,c,c,,,,,,,,,,,,,,,,,,,,,,
,,,,,,,,,,,,,,,,,,2019-05-23_19h57.38.185,Probabilistic Learning,3.1.0,60,,,,,m,0,0.344,1,0,6,0,1,5,hiragana1.xlsx,hiragana11.xlsx,6,0,180,28,1,179,L,I,c,,,m,,,,,,,,,,,,,,,,,,,,
,,,,,,,,,,,,,,,,,,2019-05-23_19h57.38.185,Probabilistic Learning,3.1.0,60,,,,,c,1,0.378,1,0,6,0,1,5,hiragana1.xlsx,hiragana11.xlsx,6,0,180,0,1,179,A,a,c,c,,,,,,,,,,,,,,,,,,,,,,
,,,,,,,,,,,,,,,,,,2019-05-23_19h57.38.185,Probabilistic Learning,3.1.0,60,,,,,m,0,0.362,1,0,6,0,1,5,hiragana1.xlsx,hiragana11.xlsx,6,0,180,18,1,179,d,O,c,,m,,,,,,,,,,,,,,,,,,,,,
,,,,,,,,,,,,,,,,,,2019-05-23_19h57.38.185,Probabilistic Learning,3.1.0,60,,,,,c,1,0.378,1,0,6,0,1,5,hiragana1.xlsx,hiragana11.xlsx,6,0,180,11,1,179,O,d,c,,c,,,,,,,,,,,,,,,,,,,,,
,,,,,,,,,,,,,,,,,,2019-05-23_19h57.38.185,Probabilistic Learning,3.1.0,60,,,,,c,1,0.391,1,0,6,0,1,5,hiragana1.xlsx,hiragana11.xlsx,6,0,180,10,1,179,O,d,c,,c,,,,,,,,,,,,,,,,,,,,,
,,,,,,,,,,,,,,,,,,2019-05-23_19h57.38.185,Probabilistic Learning,3.1.0,60,,,,,m,0,0.361,1,0,6,0,1,5,hiragana1.xlsx,hiragana11.xlsx,6,0,180,17,1,179,d,O,c,,m,,,,,,,,,,,,,,,,,,,,,
,,,,,,,,,,,,,,,,,,2019-05-23_19h57.38.185,Probabilistic Learning,3.1.0,60,,,,,c,0,0.461,1,0,6,0,1,5,hiragana1.xlsx,hiragana11.xlsx,6,0,180,4,1,179,a,A,m,m,,,,,,,,,,,,,,,,,,,,,,
,,,,,,,,,,,,,,,,,,2019-05-23_19h57.38.185,Probabilistic Learning,3.1.0,60,,,,,c,1,0.412,1,0,6,0,1,5,hiragana1.xlsx,hiragana11.xlsx,6,0,180,12,1,179,O,d,c,,c,,,,,,,,,,,,,,,,,,,,,
,,,,,,,,,,,,,,,,,,2019-05-23_19h57.38.185,Probabilistic Learning,3.1.0,60,,,,,c,0,0.363,1,0,6,0,1,5,hiragana1.xlsx,hiragana11.xlsx,6,0,180,26,1,179,I,L,m,,,c,,,,,,,,,,,,,,,,,,,,
,,,,,,,,,,,,,,,,,,2019-05-23_19h57.38.185,Probabilistic Learning,3.1.0,60,,,,,c,1,0.412,1,0,6,0,1,5,hiragana1.xlsx,hiragana11.xlsx,6,0,180,3,1,179,A,a,c,c,,,,,,,,,,,,,,,,,,,,,,
,,,,,,,,,,,,,,,,,,2019-05-23_19h57.38.185,Probabilistic Learning,3.1.0,60,,,,,m,1,0.397,1,0,6,0,1,5,hiragana1.xlsx,hiragana11.xlsx,6,0,180,6,1,179,a,A,m,m,,,,,,,,,,,,,,,,,,,,,,
,,,,,,,,,,,,,,,,,,2019-05-23_19h57.38.185,Probabilistic Learning,3.1.0,60,,,,,m,1,0.444,1,0,6,0,1,5,hiragana1.xlsx,hiragana11.xlsx,6,0,180,15,1,179,d,O,m,,m,,,,,,,,,,,,,,,,,,,,,
,,,,,,,,,,,,,,,,,,2019-05-23_19h57.38.185,Probabilistic Learning,3.1.0,60,,,,,m,1,0.444,1,0,6,0,1,5,hiragana1.xlsx,hiragana11.xlsx,6,0,180,23,1,179,L,I,m,,,m,,,,,,,,,,,,,,,,,,,,
,,,,,,,,,,,,,,,,,,2019-05-23_19h57.38.185,Probabilistic Learning,3.1.0,60,,,,,c,1,0.378,1,0,6,0,1,5,hiragana1.xlsx,hiragana11.xlsx,6,0,180,10,1,179,O,d,c,,c,,,,,,,,,,,,,,,,,,,,,
,,,,,,,,,,,,,,,,,,2019-05-23_19h57.38.185,Probabilistic Learning,3.1.0,60,,,,,c,1,0.395,1,0,6,0,1,5,hiragana1.xlsx,hiragana11.xlsx,6,0,180,11,1,179,O,d,c,,c,,,,,,,,,,,,,,,,,,,,,
,,,,,,,,,,,,,,,,,,2019-05-23_19h57.38.185,Probabilistic Learning,3.1.0,60,,,,,c,0,0.411,1,0,6,0,1,5,hiragana1.xlsx,hiragana11.xlsx,6,0,180,15,1,179,d,O,m,,m,,,,,,,,,,,,,,,,,,,,,
,,,,,,,,,,,,,,,,,,2019-05-23_19h57.38.185,Probabilistic Learning,3.1.0,60,,,,,m,0,0.361,1,0,6,0,1,5,hiragana1.xlsx,hiragana11.xlsx,6,0,180,18,1,179,d,O,c,,m,,,,,,,,,,,,,,,,,,,,,
,,,,,,,,,,,,,,,,,,2019-05-23_19h57.38.185,Probabilistic Learning,3.1.0,60,,,,,c,1,0.361,1,0,6,0,1,5,hiragana1.xlsx,hiragana11.xlsx,6,0,180,21,1,179,I,L,c,,,c,,,,,,,,,,,,,,,,,,,,
,,,,,,,,,,,,,,,,,,2019-05-23_19h57.38.185,Probabilistic Learning,3.1.0,60,,,,,c,0,0.362,1,0,6,0,1,5,hiragana1.xlsx,hiragana11.xlsx,6,0,180,19,1,179,O,d,m,,c,,,,,,,,,,,,,,,,,,,,,
,,,,,,,,,,,,,,,,,,2019-05-23_19h57.38.185,Probabilistic Learning,3.1.0,60,,,,,c,1,0.395,1,0,6,0,1,5,hiragana1.xlsx,hiragana11.xlsx,6,0,180,3,1,179,A,a,c,c,,,,,,,,,,,,,,,,,,,,,,
,,,,,,,,,,,,,,,,,,2019-05-23_19h57.38.185,Probabilistic Learning,3.1.0,60,,,,,m,1,0.378,1,0,6,0,1,5,hiragana1.xlsx,hiragana11.xlsx,6,0,180,6,1,179,a,A,m,m,,,,,,,,,,,,,,,,,,,,,,
,,,,,,,,,,,,,,,,,,2019-05-23_19h57.38.185,Probabilistic Learning,3.1.0,60,,,,,c,0,0.363,1,0,6,0,1,5,hiragana1.xlsx,hiragana11.xlsx,6,0,180,8,1,179,A,a,m,c,,,,,,,,,,,,,,,,,,,,,,
,,,,,,,,,,,,,,,,,,2019-05-23_19h57.38.185,Probabilistic Learning,3.1.0,60,,,,,m,1,0.347,1,0,6,0,1,5,hiragana1.xlsx,hiragana11.xlsx,6,0,180,5,1,179,a,A,m,m,,,,,,,,,,,,,,,,,,,,,,
,,,,,,,,,,,,,,,,,,2019-05-23_19h57.38.185,Probabilistic Learning,3.1.0,60,,,,,m,0,0.43,1,0,6,0,1,5,hiragana1.xlsx,hiragana11.xlsx,6,0,180,28,1,179,L,I,c,,,m,,,,,,,,,,,,,,,,,,,,
,,,,,,,,,,,,,,,,,,2019-05-23_19h57.38.185,Probabilistic Learning,3.1.0,60,,,,,c,1,0.347,1,0,6,0,1,5,hiragana1.xlsx,hiragana11.xlsx,6,0,180,2,1,179,A,a,c,c,,,,,,,,,,,,,,,,,,,,,,
,,,,,,,,,,,,,,,,,,2019-05-23_19h57.38.185,Probabilistic Learning,3.1.0,60,,,,,c,1,0.396,1,0,6,0,1,5,hiragana1.xlsx,hiragana11.xlsx,6,0,180,1,1,179,A,a,c,c,,,,,,,,,,,,,,,,,,,,,,
,,,,,,,,,,,,,,,,,,2019-05-23_19h57.38.185,Probabilistic Learning,3.1.0,60,,,,,m,1,0.345,1,0,6,0,1,5,hiragana1.xlsx,hiragana11.xlsx,6,0,180,24,1,179,L,I,m,,,m,,,,,,,,,,,,,,,,,,,,
,,,,,,,,,,,,,,,,,,2019-05-23_19h57.38.185,Probabilistic Learning,3.1.0,60,,,,,m,0,0.363,1,0,6,0,1,5,hiragana1.xlsx,hiragana11.xlsx,6,0,180,9,1,179,a,A,c,m,,,,,,,,,,,,,,,,,,,,,,
,,,,,,,,,,,,,,,,,,2019-05-23_19h57.38.185,Probabilistic Learning,3.1.0,60,,,,,m,1,0.362,1,0,6,0,1,5,hiragana1.xlsx,hiragana11.xlsx,6,0,180,16,1,179,d,O,m,,m,,,,,,,,,,,,,,,,,,,,,
,,,,,,,,,,,,,,,,,,2019-05-23_19h57.38.185,Probabilistic Learning,3.1.0,60,,,,,m,1,0.361,1,0,6,0,1,5,hiragana1.xlsx,hiragana11.xlsx,6,0,180,4,1,179,a,A,m,m,,,,,,,,,,,,,,,,,,,,,,
,,,,,,,,,,,,,,,,,,2019-05-23_19h57.38.185,Probabilistic Learning,3.1.0,60,,,,,c,1,0.361,1,0,6,0,1,5,hiragana1.xlsx,hiragana11.xlsx,6,0,180,20,1,179,I,L,c,,,c,,,,,,,,,,,,,,,,,,,,
,,,,,,,,,,,,,,,,,,2019-05-23_19h57.38.185,Probabilistic Learning,3.1.0,60,,,,,c,1,0.429,1,0,6,0,1,5,hiragana1.xlsx,hiragana11.xlsx,6,0,180,13,1,179,O,d,c,,c,,,,,,,,,,,,,,,,,,,,,
,,,,,,,,,,,,,,,,,,2019-05-23_19h57.38.185,Probabilistic Learning,3.1.0,60,,,,,c,0,0.364,1,0,6,0,1,5,hiragana1.xlsx,hiragana11.xlsx,6,0,180,27,1,179,I,L,m,,,c,,,,,,,,,,,,,,,,,,,,
,,,,,,,,,,,,,,,,,,2019-05-23_19h57.38.185,Probabilistic Learning,3.1.0,60,,,,,c,1,0.396,1,0,6,0,1,5,hiragana1.xlsx,hiragana11.xlsx,6,0,180,0,1,179,A,a,c,c,,,,,,,,,,,,,,,,,,,,,,
,,,,,,,,,,,,,,,,,,2019-05-23_19h57.38.185,Probabilistic Learning,3.1.0,60,,,,,c,1,0.397,1,0,6,0,1,5,hiragana1.xlsx,hiragana11.xlsx,6,0,180,22,1,179,I,L,c,,,c,,,,,,,,,,,,,,,,,,,,
,,,,,,,,,,,,,,,,,,2019-05-23_19h57.38.185,Probabilistic Learning,3.1.0,60,,,,,m,1,0.36,1,0,6,0,1,5,hiragana1.xlsx,hiragana11.xlsx,6,0,180,23,1,179,L,I,m,,,m,,,,,,,,,,,,,,,,,,,,
,,,,,,,,,,,,,,,,,,2019-05-23_19h57.38.185,Probabilistic Learning,3.1.0,60,,,,,m,1,0.364,1,0,6,0,1,5,hiragana1.xlsx,hiragana11.xlsx,6,0,180,25,1,179,L,I,m,,,m,,,,,,,,,,,,,,,,,,,,
,,,,,,,,,,,,,,,,,,2019-05-23_19h57.38.185,Probabilistic Learning,3.1.0,60,,,,,m,0,0.378,1,0,6,0,1,5,hiragana1.xlsx,hiragana11.xlsx,6,0,180,29,1,179,L,I,c,,,m,,,,,,,,,,,,,,,,,,,,
,,,,,,,,,,,,,,,,,,2019-05-23_19h57.38.185,Probabilistic Learning,3.1.0,60,,,,,c,0,0.395,1,0,6,0,1,5,hiragana1.xlsx,hiragana11.xlsx,6,0,180,14,1,179,d,O,m,,m,,,,,,,,,,,,,,,,,,,,,
,,,,,,,,,,,,,,,,,,2019-05-23_19h57.38.185,Probabilistic Learning,3.1.0,60,,,,,c,1,0.429,1,0,6,0,1,5,hiragana1.xlsx,hiragana11.xlsx,6,0,180,12,1,179,O,d,c,,c,,,,,,,,,,,,,,,,,,,,,
,,,,,,,,,,,,,,,,,,2019-05-23_19h57.38.185,Probabilistic Learning,3.1.0,60,,,,,c,0,0.428,1,0,6,0,1,5,hiragana1.xlsx,hiragana11.xlsx,6,0,180,26,1,179,I,L,m,,,c,,,,,,,,,,,,,,,,,,,,
,,,,,,,,,,,,,,,,,,2019-05-23_19h57.38.185,Probabilistic Learning,3.1.0,60,,,,,m,0,0.378,1,0,6,0,1,5,hiragana1.xlsx,hiragana11.xlsx,6,0,180,17,1,179,d,O,c,,m,,,,,,,,,,,,,,,,,,,,,
,,,,,,,,,,,,,,,,,,2019-05-23_19h57.38.185,Probabilistic Learning,3.1.0,60,,,,,m,1,0.496,1,0,6,0,1,5,hiragana1.xlsx,hiragana11.xlsx,,,,,,,,,,,,,space,1.41,space,0.671,c,0.513,2,0,92,35,1,91,a,L,B,F,,m,,
,,,,,,,,,,,,,,,,,,2019-05-23_19h57.38.185,Probabilistic Learning,3.1.0,60,,,,,,,,1,0,6,0,1,5,hiragana1.xlsx,hiragana11.xlsx,,,,,,,,,,,,,,,,,m,0.047,2,0,92,31,1,91,a,I,B,E,,m,,
,,,,,,,,,,,,,,,,,,2019-05-23_19h57.38.185,Probabilistic Learning,3.1.0,60,,,,,,,,1,0,6,0,1,5,hiragana1.xlsx,hiragana11.xlsx,,,,,,,,,,,,,,,,,c,0.164,2,0,92,13,1,91,d,A,D,A,m,,,
,,,,,,,,,,,,,,,,,,2019-05-23_19h57.38.185,Probabilistic Learning,3.1.0,60,,,,,,,,1,0,6,0,1,5,hiragana1.xlsx,hiragana11.xlsx,,,,,,,,,,,,,,,,,m,0.247,2,0,92,34,1,91,a,L,B,F,,m,,
,,,,,,,,,,,,,,,,,,2019-05-23_19h57.38.185,Probabilistic Learning,3.1.0,60,,,,,,,,1,0,6,0,1,5,hiragana1.xlsx,hiragana11.xlsx,,,,,,,,,,,,,,,,,c,0.081,2,0,92,23,1,91,a,O,B,C,,m,,
,,,,,,,,,,,,,,,,,,2019-05-23_19h57.38.185,Probabilistic Learning,3.1.0,60,,,,,,,,1,0,6,0,1,5,hiragana1.xlsx,hiragana11.xlsx,,,,,,,,,,,,,,,,,c,0.129,2,0,92,8,1,91,O,A,C,A,m,,,
,,,,,,,,,,,,,,,,,,2019-05-23_19h57.38.185,Probabilistic Learning,3.1.0,60,,,,,,,,1,0,6,0,1,5,hiragana1.xlsx,hiragana11.xlsx,,,,,,,,,,,,,,,,,c,0.181,2,0,92,27,1,91,a,d,B,D,,m,,
,,,,,,,,,,,,,,,,,,2019-05-23_19h57.38.185,Probabilistic Learning,3.1.0,60,,,,,,,,1,0,6,0,1,5,hiragana1.xlsx,hiragana11.xlsx,,,,,,,,,,,,,,,,,c,0.081,2,0,92,42,1,91,d,I,d,e,,,,
,,,,,,,,,,,,,,,,,,2019-05-23_19h57.38.185,Probabilistic Learning,3.1.0,60,,,,,,,,1,0,6,0,1,5,hiragana1.xlsx,hiragana11.xlsx,,,,,,,,,,,,,,,,,c,0.346,2,0,92,30,1,91,a,I,B,E,,m,,
,,,,,,,,,,,,,,,,,,2019-05-23_19h57.38.185,Probabilistic Learning,3.1.0,60,,,,,,,,1,0,6,0,1,5,hiragana1.xlsx,hiragana11.xlsx,,,,,,,,,,,,,,,,,,,2,0,92,12,1,91,d,A,D,A,m,,,
,,,,,,,,,,,,,,,,,,2019-05-23_19h57.38.185,Probabilistic Learning,3.1.0,60,,,,,,,,1,0,6,0,1,5,hiragana1.xlsx,hiragana11.xlsx,,,,,,,,,,,,,,,,,,,2,0,92,1,1,91,a,A,B,A,,,,
,,,,,,,,,,,,,,,,,,2019-05-23_19h57.38.185,Probabilistic Learning,3.1.0,60,,,,,,,,1,0,6,0,1,5,hiragana1.xlsx,hiragana11.xlsx,,,,,,,,,,,,,,,,,,,2,0,92,19,1,91,A,L,A,F,c,,,
,,,,,,,,,,,,,,,,,,2019-05-23_19h57.38.185,Probabilistic Learning,3.1.0,60,,,,,,,,1,0,6,0,1,5,hiragana1.xlsx,hiragana11.xlsx,,,,,,,,,,,,,,,,,,,2,0,92,3,1,91,d,O,D,C,,,,
,,,,,,,,,,,,,,,,,,2019-05-23_19h57.38.185,Probabilistic Learning,3.1.0,60,,,,,,,,1,0,6,0,1,5,hiragana1.xlsx,hiragana11.xlsx,,,,,,,,,,,,,,,,,,,2,0,92,29,1,91,d,a,D,B,,c,,
,,,,,,,,,,,,,,,,,,2019-05-23_19h57.38.185,Probabilistic Learning,3.1.0,60,,,,,,,,1,0,6,0,1,5,hiragana1.xlsx,hiragana11.xlsx,,,,,,,,,,,,,,,,,,,2,0,92,25,1,91,O,a,C,B,,c,,
,,,,,,,,,,,,,,,,,,2019-05-23_19h57.38.185,Probabilistic Learning,3.1.0,60,,,,,,,,1,0,6,0,1,5,hiragana1.xlsx,hiragana11.xlsx,,,,,,,,,,,,,,,,,,,2,0,92,2,1,91,O,d,C,D,,,,
,,,,,,,,,,,,,,,,,,2019-05-23_19h57.38.185,Probabilistic Learning,3.1.0,60,,,,,,,,1,0,6,0,1,5,hiragana1.xlsx,hiragana11.xlsx,,,,,,,,,,,,,,,,,,,2,0,92,39,1,91,I,O,e,c,,,,
,,,,,,,,,,,,,,,,,,2019-05-23_19h57.38.185,Probabilistic Learning,3.1.0,60,,,,,,,,1,0,6,0,1,5,hiragana1.xlsx,hiragana11.xlsx,,,,,,,,,,,,,,,,,,,2,0,92,17,1,91,I,A,E,A,m,,,
,,,,,,,,,,,,,,,,,,2019-05-23_19h57.38.185,Probabilistic Learning,3.1.0,60,,,,,,,,1,0,6,0,1,5,hiragana1.xlsx,hiragana11.xlsx,,,,,,,,,,,,,,,,,,,2,0,92,24,1,91,O,a,C,B,,c,,
,,,,,,,,,,,,,,,,,,2019-05-23_19h57.38.185,Probabilistic Learning,3.1.0,60,,,,,,,,1,0,6,0,1,5,hiragana1.xlsx,hiragana11.xlsx,,,,,,,,,,,,,,,,,,,2,0,92,22,1,91,a,O,B,C,,m,,
,,,,,,,,,,,,,,,,,,2019-05-23_19h57.38.185,Probabilistic Learning,3.1.0,60,,,,,,,,1,0,6,0,1,5,hiragana1.xlsx,hiragana11.xlsx,,,,,,,,,,,,,,,,,,,2,0,92,38,1,91,O,I,C,E,,,,
,,,,,,,,,,,,,,,,,,2019-05-23_19h57.38.185,Probabilistic Learning,3.1.0,60,,,,,,,,1,0,6,0,1,5,hiragana1.xlsx,hiragana11.xlsx,,,,,,,,,,,,,,,,,,,2,0,92,15,1,91,A,I,A,E,c,,,
,,,,,,,,,,,,,,,,,,2019-05-23_19h57.38.185,Probabilistic Learning,3.1.0,60,,,,,,,,1,0,6,0,1,5,hiragana1.xlsx,hiragana11.xlsx,,,,,,,,,,,,,,,,,,,2,0,92,16,1,91,I,A,E,A,m,,,
,,,,,,,,,,,,,,,,,,2019-05-23_19h57.38.185,Probabilistic Learning,3.1.0,60,,,,,,,,1,0,6,0,1,5,hiragana1.xlsx,hiragana11.xlsx,,,,,,,,,,,,,,,,,,,2,0,92,6,1,91,A,O,A,C,c,,,
,,,,,,,,,,,,,,,,,,2019-05-23_19h57.38.185,Probabilistic Learning,3.1.0,60,,,,,,,,1,0,6,0,1,5,hiragana1.xlsx,hiragana11.xlsx,,,,,,,,,,,,,,,,,,,2,0,92,20,1,91,L,A,F,A,m,,,
,,,,,,,,,,,,,,,,,,2019-05-23_19h57.38.185,Probabilistic Learning,3.1.0,60,,,,,,,,1,0,6,0,1,5,hiragana1.xlsx,hiragana11.xlsx,,,,,,,,,,,,,,,,,,,2,0,92,18,1,91,A,L,A,F,c,,,
,,,,,,,,,,,,,,,,,,2019-05-23_19h57.38.185,Probabilistic Learning,3.1.0,60,,,,,,,,1,0,6,0,1,5,hiragana1.xlsx,hiragana11.xlsx,,,,,,,,,,,,,,,,,,,2,0,92,7,1,91,A,O,A,C,c,,,
,,,,,,,,,,,,,,,,,,2019-05-23_19h57.38.185,Probabilistic Learning,3.1.0,60,,,,,,,,1,0,6,0,1,5,hiragana1.xlsx,hiragana11.xlsx,,,,,,,,,,,,,,,,,m,1.263,2,0,92,33,1,91,I,a,E,B,,c,,
,,,,,,,,,,,,,,,,,,2019-05-23_19h57.38.185,Probabilistic Learning,3.1.0,60,,,,,,,,1,0,6,0,1,5,hiragana1.xlsx,hiragana11.xlsx,,,,,,,,,,,,,,,,,m,0.247,2,0,92,4,1,91,I,L,E,F,,,,
,,,,,,,,,,,,,,,,,,2019-05-23_19h57.38.185,Probabilistic Learning,3.1.0,60,,,,,,,,1,0,6,0,1,5,hiragana1.xlsx,hiragana11.xlsx,,,,,,,,,,,,,,,,,m,0.195,2,0,92,10,1,91,A,d,A,D,c,,,
,,,,,,,,,,,,,,,,,,2019-05-23_19h57.38.185,Probabilistic Learning,3.1.0,60,,,,,,,,1,0,6,0,1,5,hiragana1.xlsx,hiragana11.xlsx,,,,,,,,,,,,,,,,,m,0.229,2,0,92,40,1,91,O,L,c,f,,,,
,,,,,,,,,,,,,,,,,,2019-05-23_19h57.38.185,Probabilistic Learning,3.1.0,60,,,,,,,,1,0,6,0,1,5,hiragana1.xlsx,hiragana11.xlsx,,,,,,,,,,,,,,,,,m,0.646,2,0,92,5,1,91,L,I,F,E,,,,
,,,,,,,,,,,,,,,,,,2019-05-23_19h57.38.185,Probabilistic Learning,3.1.0,60,,,,,,,,1,0,6,0,1,5,hiragana1.xlsx,hiragana11.xlsx,,,,,,,,,,,,,,,,,m,0.212,2,0,92,43,1,91,I,d,e,d,,,,
,,,,,,,,,,,,,,,,,,2019-05-23_19h57.38.185,Probabilistic Learning,3.1.0,60,,,,,,,,1,0,6,0,1,5,hiragana1.xlsx,hiragana11.xlsx,,,,,,,,,,,,,,,,,m,0.18,2,0,92,36,1,91,L,a,F,B,,c,,
,,,,,,,,,,,,,,,,,,2019-05-23_19h57.38.185,Probabilistic Learning,3.1.0,60,,,,,,,,1,0,6,0,1,5,hiragana1.xlsx,hiragana11.xlsx,,,,,,,,,,,,,,,,,c,0.262,2,0,92,0,1,91,A,a,A,B,,,,
,,,,,,,,,,,,,,,,,,2019-05-23_19h57.38.185,Probabilistic Learning,3.1.0,60,,,,,,,,1,0,6,0,1,5,hiragana1.xlsx,hiragana11.xlsx,,,,,,,,,,,,,,,,,c,0.096,2,0,92,9,1,91,O,A,C,A,m,,,
,,,,,,,,,,,,,,,,,,2019-05-23_19h57.38.185,Probabilistic Learning,3.1.0,60,,,,,,,,1,0,6,0,1,5,hiragana1.xlsx,hiragana11.xlsx,,,,,,,,,,,,,,,,,c,0.213,2,0,92,14,1,91,A,I,A,E,c,,,
,,,,,,,,,,,,,,,,,,2019-05-23_19h57.38.185,Probabilistic Learning,3.1.0,60,,,,,,,,1,0,6,0,1,5,hiragana1.xlsx,hiragana11.xlsx,,,,,,,,,,,,,,,,,c,0.229,2,0,92,26,1,91,a,d,B,D,,m,,
,,,,,,,,,,,,,,,,,,2019-05-23_19h57.38.185,Probabilistic Learning,3.1.0,60,,,,,,,,1,0,6,0,1,5,hiragana1.xlsx,hiragana11.xlsx,,,,,,,,,,,,,,,,,c,0.131,2,0,92,11,1,91,A,d,A,D,c,,,
,,,,,,,,,,,,,,,,,,2019-05-23_19h57.38.185,Probabilistic Learning,3.1.0,60,,,,,,,,1,0,6,0,1,5,hiragana1.xlsx,hiragana11.xlsx,,,,,,,,,,,,,,,,,c,0.064,2,0,92,37,1,91,L,a,F,B,,c,,
,,,,,,,,,,,,,,,,,,2019-05-23_19h57.38.185,Probabilistic Learning,3.1.0,60,,,,,,,,1,0,6,0,1,5,hiragana1.xlsx,hiragana11.xlsx,,,,,,,,,,,,,,,,,c,0.063,2,0,92,28,1,91,d,a,D,B,,c,,
,,,,,,,,,,,,,,,,,,2019-05-23_19h57.38.185,Probabilistic Learning,3.1.0,60,,,,,,,,1,0,6,0,1,5,hiragana1.xlsx,hiragana11.xlsx,,,,,,,,,,,,,,,,,m,0.195,2,0,92,45,1,91,L,d,f,d,,,,
,,,,,,,,,,,,,,,,,,2019-05-23_19h57.38.185,Probabilistic Learning,3.1.0,60,,,,,,,,1,0,6,0,1,5,hiragana1.xlsx,hiragana11.xlsx,,,,,,,,,,,,,,,,,c,0.046,2,0,92,41,1,91,L,O,f,c,,,,
,,,,,,,,,,,,,,,,,,2019-05-23_19h57.38.185,Probabilistic Learning,3.1.0,60,,,,,,,,1,0,6,0,1,5,hiragana1.xlsx,hiragana11.xlsx,,,,,,,,,,,,,,,,,m,0.228,2,0,92,21,1,91,L,A,F,A,m,,,
,,,,,,,,,,,,,,,,,,2019-05-23_19h57.38.185,Probabilistic Learning,3.1.0,60,,,,,,,,1,0,6,0,1,5,hiragana1.xlsx,hiragana11.xlsx,,,,,,,,,,,,,,,,,m,0.23,2,0,92,32,1,91,I,a,E,B,,c,,
,,,,,,,,,,,,,,,,,,2019-05-23_19h57.38.185,Probabilistic Learning,3.1.0,60,,,,,,,,1,0,6,0,1,5,hiragana1.xlsx,hiragana11.xlsx,,,,,,,,,,,,,,,,,c,0.196,2,0,92,44,1,91,d,L,d,f,,,,
,,,,,,,,,,,,,,,,,,2019-05-23_19h57.38.185,Probabilistic Learning,3.1.0,60,,,,,,,,1,0,6,0,1,5,hiragana1.xlsx,hiragana11.xlsx,,,,,,,,,,,,,,,,,m,0.196,2,0,92,0,1,91,A,a,A,B,,,,
,,,,,,,,,,,,,,,,,,2019-05-23_19h57.38.185,Probabilistic Learning,3.1.0,60,,,,,,,,1,0,6,0,1,5,hiragana1.xlsx,hiragana11.xlsx,,,,,,,,,,,,,,,,,c,0.265,2,0,92,2,1,91,O,d,C,D,,,,
,,,,,,,,,,,,,,,,,,2019-05-23_19h57.38.185,Probabilistic Learning,3.1.0,60,,,,,,,,1,0,6,0,1,5,hiragana1.xlsx,hiragana11.xlsx,,,,,,,,,,,,,,,,,c,0.26,2,0,92,32,1,91,I,a,E,B,,c,,
,,,,,,,,,,,,,,,,,,2019-05-23_19h57.38.185,Probabilistic Learning,3.1.0,60,,,,,,,,1,0,6,0,1,5,hiragana1.xlsx,hiragana11.xlsx,,,,,,,,,,,,,,,,,m,0.131,2,0,92,39,1,91,I,O,e,c,,,,
,,,,,,,,,,,,,,,,,,2019-05-23_19h57.38.185,Probabilistic Learning,3.1.0,60,,,,,,,,1,0,6,0,1,5,hiragana1.xlsx,hiragana11.xlsx,,,,,,,,,,,,,,,,,c,0.062,2,0,92,21,1,91,L,A,F,A,m,,,
,,,,,,,,,,,,,,,,,,2019-05-23_19h57.38.185,Probabilistic Learning,3.1.0,60,,,,,,,,1,0,6,0,1,5,hiragana1.xlsx,hiragana11.xlsx,,,,,,,,,,,,,,,,,c,0.079,2,0,92,12,1,91,d,A,D,A,m,,,
,,,,,,,,,,,,,,,,,,2019-05-23_19h57.38.185,Probabilistic Learning,3.1.0,60,,,,,,,,1,0,6,0,1,5,hiragana1.xlsx,hiragana11.xlsx,,,,,,,,,,,,,,,,,c,0.245,2,0,92,7,1,91,A,O,A,C,c,,,
,,,,,,,,,,,,,,,,,,2019-05-23_19h57.38.185,Probabilistic Learning,3.1.0,60,,,,,,,,1,0,6,0,1,5,hiragana1.xlsx,hiragana11.xlsx,,,,,,,,,,,,,,,,,m,0.194,2,0,92,3,1,91,d,O,D,C,,,,
,,,,,,,,,,,,,,,,,,2019-05-23_19h57.38.185,Probabilistic Learning,3.1.0,60,,,,,,,,1,0,6,0,1,5,hiragana1.xlsx,hiragana11.xlsx,,,,,,,,,,,,,,,,,c,0.212,2,0,92,6,1,91,A,O,A,C,c,,,
,,,,,,,,,,,,,,,,,,2019-05-23_19h57.38.185,Probabilistic Learning,3.1.0,60,,,,,,,,1,0,6,0,1,5,hiragana1.xlsx,hiragana11.xlsx,,,,,,,,,,,,,,,,,m,0.176,2,0,92,19,1,91,A,L,A,F,c,,,
,,,,,,,,,,,,,,,,,,2019-05-23_19h57.38.185,Probabilistic Learning,3.1.0,60,,,,,,,,1,0,6,0,1,5,hiragana1.xlsx,hiragana11.xlsx,,,,,,,,,,,,,,,,,c,0.212,2,0,92,30,1,91,a,I,B,E,,m,,
,,,,,,,,,,,,,,,,,,2019-05-23_19h57.38.185,Probabilistic Learning,3.1.0,60,,,,,,,,1,0,6,0,1,5,hiragana1.xlsx,hiragana11.xlsx,,,,,,,,,,,,,,,,,c,0.097,2,0,92,35,1,91,a,L,B,F,,m,,
,,,,,,,,,,,,,,,,,,2019-05-23_19h57.38.185,Probabilistic Learning,3.1.0,60,,,,,,,,1,0,6,0,1,5,hiragana1.xlsx,hiragana11.xlsx,,,,,,,,,,,,,,,,,m,0.228,2,0,92,22,1,91,a,O,B,C,,m,,
,,,,,,,,,,,,,,,,,,2019-05-23_19h57.38.185,Probabilistic Learning,3.1.0,60,,,,,,,,1,0,6,0,1,5,hiragana1.xlsx,hiragana11.xlsx,,,,,,,,,,,,,,,,,c,0.228,2,0,92,16,1,91,I,A,E,A,m,,,
,,,,,,,,,,,,,,,,,,2019-05-23_19h57.38.185,Probabilistic Learning,3.1.0,60,,,,,,,,1,0,6,0,1,5,hiragana1.xlsx,hiragana11.xlsx,,,,,,,,,,,,,,,,,m,0.179,2,0,92,44,1,91,d,L,d,f,,,,
,,,,,,,,,,,,,,,,,,2019-05-23_19h57.38.185,Probabilistic Learning,3.1.0,60,,,,,,,,1,0,6,0,1,5,hiragana1.xlsx,hiragana11.xlsx,,,,,,,,,,,,,,,,,m,0.229,2,0,92,11,1,91,A,d,A,D,c,,,
,,,,,,,,,,,,,,,,,,2019-05-23_19h57.38.185,Probabilistic Learning,3.1.0,60,,,,,,,,1,0,6,0,1,5,hiragana1.xlsx,hiragana11.xlsx,,,,,,,,,,,,,,,,,c,0.145,2,0,92,25,1,91,O,a,C,B,,c,,
,,,,,,,,,,,,,,,,,,2019-05-23_19h57.38.185,Probabilistic Learning,3.1.0,60,,,,,,,,1,0,6,0,1,5,hiragana1.xlsx,hiragana11.xlsx,,,,,,,,,,,,,,,,,m,0.112,2,0,92,33,1,91,I,a,E,B,,c,,
,,,,,,,,,,,,,,,,,,2019-05-23_19h57.38.185,Probabilistic Learning,3.1.0,60,,,,,,,,1,0,6,0,1,5,hiragana1.xlsx,hiragana11.xlsx,,,,,,,,,,,,,,,,,m,0.029,2,0,92,23,1,91,a,O,B,C,,m,,
,,,,,,,,,,,,,,,,,,2019-05-23_19h57.38.185,Probabilistic Learning,3.1.0,60,,,,,,,,1,0,6,0,1,5,hiragana1.xlsx,hiragana11.xlsx,,,,,,,,,,,,,,,,,c,0.246,2,0,92,45,1,91,L,d,f,d,,,,
,,,,,,,,,,,,,,,,,,2019-05-23_19h57.38.185,Probabilistic Learning,3.1.0,60,,,,,,,,1,0,6,0,1,5,hiragana1.xlsx,hiragana11.xlsx,,,,,,,,,,,,,,,,,m,0.179,2,0,92,4,1,91,I,L,E,F,,,,
,,,,,,,,,,,,,,,,,,2019-05-23_19h57.38.185,Probabilistic Learning,3.1.0,60,,,,,,,,1,0,6,0,1,5,hiragana1.xlsx,hiragana11.xlsx,,,,,,,,,,,,,,,,,m,0.213,2,0,92,38,1,91,O,I,C,E,,,,
,,,,,,,,,,,,,,,,,,2019-05-23_19h57.38.185,Probabilistic Learning,3.1.0,60,,,,,,,,1,0,6,0,1,5,hiragana1.xlsx,hiragana11.xlsx,,,,,,,,,,,,,,,,,c,0.045,2,0,92,43,1,91,I,d,e,d,,,,
,,,,,,,,,,,,,,,,,,2019-05-23_19h57.38.185,Probabilistic Learning,3.1.0,60,,,,,,,,1,0,6,0,1,5,hiragana1.xlsx,hiragana11.xlsx,,,,,,,,,,,,,,,,,m,0.079,2,0,92,24,1,91,O,a,C,B,,c,,
,,,,,,,,,,,,,,,,,,2019-05-23_19h57.38.185,Probabilistic Learning,3.1.0,60,,,,,,,,1,0,6,0,1,5,hiragana1.xlsx,hiragana11.xlsx,,,,,,,,,,,,,,,,,m,0.095,2,0,92,10,1,91,A,d,A,D,c,,,
,,,,,,,,,,,,,,,,,,2019-05-23_19h57.38.185,Probabilistic Learning,3.1.0,60,,,,,,,,1,0,6,0,1,5,hiragana1.xlsx,hiragana11.xlsx,,,,,,,,,,,,,,,,,m,0.179,2,0,92,29,1,91,d,a,D,B,,c,,
,,,,,,,,,,,,,,,,,,2019-05-23_19h57.38.185,Probabilistic Learning,3.1.0,60,,,,,,,,1,0,6,0,1,5,hiragana1.xlsx,hiragana11.xlsx,,,,,,,,,,,,,,,,,c,0.229,2,0,92,36,1,91,L,a,F,B,,c,,
,,,,,,,,,,,,,,,,,,2019-05-23_19h57.38.185,Probabilistic Learning,3.1.0,60,,,,,,,,1,0,6,0,1,5,hiragana1.xlsx,hiragana11.xlsx,,,,,,,,,,,,,,,,,m,0.112,2,0,92,37,1,91,L,a,F,B,,c,,
,,,,,,,,,,,,,,,,,,2019-05-23_19h57.38.185,Probabilistic Learning,3.1.0,60,,,,,,,,1,0,6,0,1,5,hiragana1.xlsx,hiragana11.xlsx,,,,,,,,,,,,,,,,,m,0.045,2,0,92,42,1,91,d,I,d,e,,,,
,,,,,,,,,,,,,,,,,,2019-05-23_19h57.38.185,Probabilistic Learning,3.1.0,60,,,,,,,,1,0,6,0,1,5,hiragana1.xlsx,hiragana11.xlsx,,,,,,,,,,,,,,,,,c,0.379,2,0,92,34,1,91,a,L,B,F,,m,,
,,,,,,,,,,,,,,,,,,2019-05-23_19h57.38.185,Probabilistic Learning,3.1.0,60,,,,,,,,1,0,6,0,1,5,hiragana1.xlsx,hiragana11.xlsx,,,,,,,,,,,,,,,,,c,0.228,2,0,92,13,1,91,d,A,D,A,m,,,
,,,,,,,,,,,,,,,,,,2019-05-23_19h57.38.185,Probabilistic Learning,3.1.0,60,,,,,,,,1,0,6,0,1,5,hiragana1.xlsx,hiragana11.xlsx,,,,,,,,,,,,,,,,,m,0.113,2,0,92,31,1,91,a,I,B,E,,m,,
,,,,,,,,,,,,,,,,,,2019-05-23_19h57.38.185,Probabilistic Learning,3.1.0,60,,,,,,,,1,0,6,0,1,5,hiragana1.xlsx,hiragana11.xlsx,,,,,,,,,,,,,,,,,c,0.113,2,0,92,9,1,91,O,A,C,A,m,,,
,,,,,,,,,,,,,,,,,,2019-05-23_19h57.38.185,Probabilistic Learning,3.1.0,60,,,,,,,,1,0,6,0,1,5,hiragana1.xlsx,hiragana11.xlsx,,,,,,,,,,,,,,,,,m,0.179,2,0,92,14,1,91,A,I,A,E,c,,,
,,,,,,,,,,,,,,,,,,2019-05-23_19h57.38.185,Probabilistic Learning,3.1.0,60,,,,,,,,1,0,6,0,1,5,hiragana1.xlsx,hiragana11.xlsx,,,,,,,,,,,,,,,,,c,0.264,2,0,92,15,1,91,A,I,A,E,c,,,
,,,,,,,,,,,,,,,,,,2019-05-23_19h57.38.185,Probabilistic Learning,3.1.0,60,,,,,,,,1,0,6,0,1,5,hiragana1.xlsx,hiragana11.xlsx,,,,,,,,,,,,,,,,,c,0.212,2,0,92,26,1,91,a,d,B,D,,m,,
,,,,,,,,,,,,,,,,,,2019-05-23_19h57.38.185,Probabilistic Learning,3.1.0,60,,,,,,,,1,0,6,0,1,5,hiragana1.xlsx,hiragana11.xlsx,,,,,,,,,,,,,,,,,m,0.096,2,0,92,1,1,91,a,A,B,A,,,,
,,,,,,,,,,,,,,,,,,2019-05-23_19h57.38.185,Probabilistic Learning,3.1.0,60,,,,,,,,1,0,6,0,1,5,hiragana1.xlsx,hiragana11.xlsx,,,,,,,,,,,,,,,,,c,0.212,2,0,92,28,1,91,d,a,D,B,,c,,
,,,,,,,,,,,,,,,,,,2019-05-23_19h57.38.185,Probabilistic Learning,3.1.0,60,,,,,,,,1,0,6,0,1,5,hiragana1.xlsx,hiragana11.xlsx,,,,,,,,,,,,,,,,,m,0.113,2,0,92,18,1,91,A,L,A,F,c,,,
,,,,,,,,,,,,,,,,,,2019-05-23_19h57.38.185,Probabilistic Learning,3.1.0,60,,,,,,,,1,0,6,0,1,5,hiragana1.xlsx,hiragana11.xlsx,,,,,,,,,,,,,,,,,m,0.029,2,0,92,5,1,91,L,I,F,E,,,,
,,,,,,,,,,,,,,,,,,2019-05-23_19h57.38.185,Probabilistic Learning,3.1.0,60,,,,,,,,1,0,6,0,1,5,hiragana1.xlsx,hiragana11.xlsx,,,,,,,,,,,,,,,,,c,0.162,2,0,92,40,1,91,O,L,c,f,,,,
,,,,,,,,,,,,,,,,,,2019-05-23_19h57.38.185,Probabilistic Learning,3.1.0,60,,,,,,,,1,0,6,0,1,5,hiragana1.xlsx,hiragana11.xlsx,,,,,,,,,,,,,,,,,m,0.212,2,0,92,20,1,91,L,A,F,A,m,,,
,,,,,,,,,,,,,,,,,,2019-05-23_19h57.38.185,Probabilistic Learning,3.1.0,60,,,,,,,,1,0,6,0,1,5,hiragana1.xlsx,hiragana11.xlsx,,,,,,,,,,,,,,,,,m,0.195,2,0,92,17,1,91,I,A,E,A,m,,,
,,,,,,,,,,,,,,,,,,2019-05-23_19h57.38.185,Probabilistic Learning,3.1.0,60,,,,,,,,1,0,6,0,1,5,hiragana1.xlsx,hiragana11.xlsx,,,,,,,,,,,,,,,,,c,0.112,2,0,92,8,1,91,O,A,C,A,m,,,
,,,,,,,,,,,,,,,,,,2019-05-23_19h57.38.185,Probabilistic Learning,3.1.0,60,,,,,,,,1,0,6,0,1,5,hiragana1.xlsx,hiragana11.xlsx,,,,,,,,,,,,,,,,,m,0.079,2,0,92,27,1,91,a,d,B,D,,m,,
,,,,,,,,,,,,,,,,,,2019-05-23_19h57.38.185,Probabilistic Learning,3.1.0,60,,,,,,,,1,0,6,0,1,5,hiragana1.xlsx,hiragana11.xlsx,,,,,,,,,,,,,,,,,m,0.012,2,0,92,41,1,91,L,O,f,c,,,,
,,,,,,,,,,,,,,,,,,2019-05-23_19h57.38.185,Probabilistic Learning,3.1.0,60,,,,,,,,1,0,6,0,1,5,hiragana1.xlsx,hiragana11.xlsx,,,,,,,,,,,,,,,,,,,,,,,,,,,,,,,space,1.977
,,,,,,,,,,,,,,,,,,2019-05-23_19h57.38.185,Probabilistic Learning,3.1.0,60,,,space,1.261,m,1,0.561,1,0,6,3,1,5,hiragana4.xlsx,hiragana41.xlsx,6,0,180,16,1,179,i,c,m,,m,,,,,,,,,,,,,,,,,,,,,
,,,,,,,,,,,,,,,,,,2019-05-23_19h57.38.185,Probabilistic Learning,3.1.0,60,,,,,m,0,0.442,1,0,6,3,1,5,hiragana4.xlsx,hiragana41.xlsx,6,0,180,29,1,179,n,M,c,,,m,,,,,,,,,,,,,,,,,,,,
,,,,,,,,,,,,,,,,,,2019-05-23_19h57.38.185,Probabilistic Learning,3.1.0,60,,,,,c,1,0.546,1,0,6,3,1,5,hiragana4.xlsx,hiragana41.xlsx,6,0,180,10,1,179,c,i,c,,c,,,,,,,,,,,,,,,,,,,,,
,,,,,,,,,,,,,,,,,,2019-05-23_19h57.38.185,Probabilistic Learning,3.1.0,60,,,,,c,1,0.346,1,0,6,3,1,5,hiragana4.xlsx,hiragana41.xlsx,6,0,180,12,1,179,c,i,c,,c,,,,,,,,,,,,,,,,,,,,,
,,,,,,,,,,,,,,,,,,2019-05-23_19h57.38.185,Probabilistic Learning,3.1.0,60,,,,,c,1,0.347,1,0,6,3,1,5,hiragana4.xlsx,hiragana41.xlsx,6,0,180,13,1,179,c,i,c,,c,,,,,,,,,,,,,,,,,,,,,
,,,,,,,,,,,,,,,,,,2019-05-23_19h57.38.185,Probabilistic Learning,3.1.0,60,,,,,c,0,0.429,1,0,6,3,1,5,hiragana4.xlsx,hiragana41.xlsx,6,0,180,27,1,179,M,n,m,,,c,,,,,,,,,,,,,,,,,,,,
,,,,,,,,,,,,,,,,,,2019-05-23_19h57.38.185,Probabilistic Learning,3.1.0,60,,,,,c,0,0.364,1,0,6,3,1,5,hiragana4.xlsx,hiragana41.xlsx,6,0,180,26,1,179,M,n,m,,,c,,,,,,,,,,,,,,,,,,,,
,,,,,,,,,,,,,,,,,,2019-05-23_19h57.38.185,Probabilistic Learning,3.1.0,60,,,,,c,0,0.314,1,0,6,3,1,5,hiragana4.xlsx,hiragana41.xlsx,6,0,180,14,1,179,i,c,m,,m,,,,,,,,,,,,,,,,,,,,,
,,,,,,,,,,,,,,,,,,2019-05-23_19h57.38.185,Probabilistic Learning,3.1.0,60,,,,,c,1,0.426,1,0,6,3,1,5,hiragana4.xlsx,hiragana41.xlsx,6,0,180,0,1,179,k,R,c,c,,,,,,,,,,,,,,,,,,,,,,
,,,,,,,,,,,,,,,,,,2019-05-23_19h57.38.185,Probabilistic Learning,3.1.0,60,,,,,c,0,0.345,1,0,6,3,1,5,hiragana4.xlsx,hiragana41.xlsx,6,0,180,23,1,179,n,M,m,,,m,,,,,,,,,,,,,,,,,,,,
,,,,,,,,,,,,,,,,,,2019-05-23_19h57.38.185,Probabilistic Learning,3.1.0,60,,,,,c,1,0.38,1,0,6,3,1,5,hiragana4.xlsx,hiragana41.xlsx,6,0,180,22,1,179,M,n,c,,,c,,,,,,,,,,,,,,,,,,,,
,,,,,,,,,,,,,,,,,,2019-05-23_19h57.38.185,Probabilistic Learning,3.1.0,60,,,,,m,1,0.414,1,0,6,3,1,5,hiragana4.xlsx,hiragana41.xlsx,6,0,180,19,1,179,c,i,m,,c,,,,,,,,,,,,,,,,,,,,,
,,,,,,,,,,,,,,,,,,2019-05-23_19h57.38.185,Probabilistic Learning,3.1.0,60,,,,,m,0,0.446,1,0,6,3,1,5,hiragana4.xlsx,hiragana41.xlsx,6,0,180,17,1,179,i,c,c,,m,,,,,,,,,,,,,,,,,,,,,
,,,,,,,,,,,,,,,,,,2019-05-23_19h57.38.185,Probabilistic Learning,3.1.0,60,,,,,m,1,0.512,1,0,6,3,1,5,hiragana4.xlsx,hiragana41.xlsx,6,0,180,24,1,179,n,M,m,,,m,,,,,,,,,,,,,,,,,,,,
,,,,,,,,,,,,,,,,,,2019-05-23_19h57.38.185,Probabilistic Learning,3.1.0,60,,,,,m,1,0.397,1,0,6,3,1,5,hiragana4.xlsx,hiragana41.xlsx,6,0,180,25,1,179,n,M,m,,,m,,,,,,,,,,,,,,,,,,,,
,,,,,,,,,,,,,,,,,,2019-05-23_19h57.38.185,Probabilistic Learning,3.1.0,60,,,,,m,0,0.397,1,0,6,3,1,5,hiragana4.xlsx,hiragana41.xlsx,6,0,180,11,1,179,c,i,c,,c,,,,,,,,,,,,,,,,,,,,,
,,,,,,,,,,,,,,,,,,2019-05-23_19h57.38.185,Probabilistic Learning,3.1.0,60,,,,,m,0,0.364,1,0,6,3,1,5,hiragana4.xlsx,hiragana41.xlsx,6,0,180,2,1,179,k,R,c,c,,,,,,,,,,,,,,,,,,,,,,
,,,,,,,,,,,,,,,,,,2019-05-23_19h57.38.185,Probabilistic Learning,3.1.0,60,,,,,c,0,0.397,1,0,6,3,1,5,hiragana4.xlsx,hiragana41.xlsx,6,0,180,8,1,179,k,R,m,c,,,,,,,,,,,,,,,,,,,,,,
,,,,,,,,,,,,,,,,,,2019-05-23_19h57.38.185,Probabilistic Learning,3.1.0,60,,,,,c,1,0.363,1,0,6,3,1,5,hiragana4.xlsx,hiragana41.xlsx,6,0,180,1,1,179,k,R,c,c,,,,,,,,,,,,,,,,,,,,,,
,,,,,,,,,,,,,,,,,,2019-05-23_19h57.38.185,Probabilistic Learning,3.1.0,60,,,,,c,1,0.397,1,0,6,3,1,5,hiragana4.xlsx,hiragana41.xlsx,6,0,180,20,1,179,M,n,c,,,c,,,,,,,,,,,,,,,,,,,,
,,,,,,,,,,,,,,,,,,2019-05-23_19h57.38.185,Probabilistic Learning,3.1.0,60,,,,,m,1,0.48,1,0,6,3,1,5,hiragana4.xlsx,hiragana41.xlsx,6,0,180,4,1,179,R,k,m,m,,,,,,,,,,,,,,,,,,,,,,
,,,,,,,,,,,,,,,,,,2019-05-23_19h57.38.185,Probabilistic Learning,3.1.0,60,,,,,c,1,0.413,1,0,6,3,1,5,hiragana4.xlsx,hiragana41.xlsx,6,0,180,18,1,179,i,c,c,,m,,,,,,,,,,,,,,,,,,,,,
,,,,,,,,,,,,,,,,,,2019-05-23_19h57.38.185,Probabilistic Learning,3.1.0,60,,,,,m,1,0.431,1,0,6,3,1,5,hiragana4.xlsx,hiragana41.xlsx,6,0,180,15,1,179,i,c,m,,m,,,,,,,,,,,,,,,,,,,,,
,,,,,,,,,,,,,,,,,,2019-05-23_19h57.38.185,Probabilistic Learning,3.1.0,60,,,,,c,1,0.365,1,0,6,3,1,5,hiragana4.xlsx,hiragana41.xlsx,6,0,180,3,1,179,k,R,c,c,,,,,,,,,,,,,,,,,,,,,,
,,,,,,,,,,,,,,,,,,2019-05-23_19h57.38.185,Probabilistic Learning,3.1.0,60,,,,,c,1,0.362,1,0,6,3,1,5,hiragana4.xlsx,hiragana41.xlsx,6,0,180,21,1,179,M,n,c,,,c,,,,,,,,,,,,,,,,,,,,
,,,,,,,,,,,,,,,,,,2019-05-23_19h57.38.185,Probabilistic Learning,3.1.0,60,,,,,m,1,0.414,1,0,6,3,1,5,hiragana4.xlsx,hiragana41.xlsx,6,0,180,5,1,179,R,k,m,m,,,,,,,,,,,,,,,,,,,,,,
,,,,,,,,,,,,,,,,,,2019-05-23_19h57.38.185,Probabilistic Learning,3.1.0,60,,,,,m,1,0.347,1,0,6,3,1,5,hiragana4.xlsx,hiragana41.xlsx,6,0,180,7,1,179,R,k,m,m,,,,,,,,,,,,,,,,,,,,,,
,,,,,,,,,,,,,,,,,,2019-05-23_19h57.38.185,Probabilistic Learning,3.1.0,60,,,,,m,1,0.347,1,0,6,3,1,5,hiragana4.xlsx,hiragana41.xlsx,6,0,180,6,1,179,R,k,m,m,,,,,,,,,,,,,,,,,,,,,,
,,,,,,,,,,,,,,,,,,2019-05-23_19h57.38.185,Probabilistic Learning,3.1.0,60,,,,,m,0,0.279,1,0,6,3,1,5,hiragana4.xlsx,hiragana41.xlsx,6,0,180,9,1,179,R,k,c,m,,,,,,,,,,,,,,,,,,,,,,
,,,,,,,,,,,,,,,,,,2019-05-23_19h57.38.185,Probabilistic Learning,3.1.0,60,,,,,m,0,0.246,1,0,6,3,1,5,hiragana4.xlsx,hiragana41.xlsx,6,0,180,28,1,179,n,M,c,,,m,,,,,,,,,,,,,,,,,,,,
,,,,,,,,,,,,,,,,,,2019-05-23_19h57.38.185,Probabilistic Learning,3.1.0,60,,,,,c,0,0.379,1,0,6,3,1,5,hiragana4.xlsx,hiragana41.xlsx,6,0,180,24,1,179,n,M,m,,,m,,,,,,,,,,,,,,,,,,,,
,,,,,,,,,,,,,,,,,,2019-05-23_19h57.38.185,Probabilistic Learning,3.1.0,60,,,,,m,0,0.327,1,0,6,3,1,5,hiragana4.xlsx,hiragana41.xlsx,6,0,180,29,1,179,n,M,c,,,m,,,,,,,,,,,,,,,,,,,,
,,,,,,,,,,,,,,,,,,2019-05-23_19h57.38.185,Probabilistic Learning,3.1.0,60,,,,,m,0,0.264,1,0,6,3,1,5,hiragana4.xlsx,hiragana41.xlsx,6,0,180,20,1,179,M,n,c,,,c,,,,,,,,,,,,,,,,,,,,
,,,,,,,,,,,,,,,,,,2019-05-23_19h57.38.185,Probabilistic Learning,3.1.0,60,,,,,c,0,0.362,1,0,6,3,1,5,hiragana4.xlsx,hiragana41.xlsx,6,0,180,8,1,179,k,R,m,c,,,,,,,,,,,,,,,,,,,,,,
,,,,,,,,,,,,,,,,,,2019-05-23_19h57.38.185,Probabilistic Learning,3.1.0,60,,,,,c,1,0.378,1,0,6,3,1,5,hiragana4.xlsx,hiragana41.xlsx,6,0,180,21,1,179,M,n,c,,,c,,,,,,,,,,,,,,,,,,,,
,,,,,,,,,,,,,,,,,,2019-05-23_19h57.38.185,Probabilistic Learning,3.1.0,60,,,,,c,0,0.346,1,0,6,3,1,5,hiragana4.xlsx,hiragana41.xlsx,6,0,180,26,1,179,M,n,m,,,c,,,,,,,,,,,,,,,,,,,,
,,,,,,,,,,,,,,,,,,2019-05-23_19h57.38.185,Probabilistic Learning,3.1.0,60,,,,,c,0,0.346,1,0,6,3,1,5,hiragana4.xlsx,hiragana41.xlsx,6,0,180,16,1,179,i,c,m,,m,,,,,,,,,,,,,,,,,,,,,
,,,,,,,,,,,,,,,,,,2019-05-23_19h57.38.185,Probabilistic Learning,3.1.0,60,,,,,m,0,0.347,1,0,6,3,1,5,hiragana4.xlsx,hiragana41.xlsx,6,0,180,17,1,179,i,c,c,,m,,,,,,,,,,,,,,,,,,,,,
,,,,,,,,,,,,,,,,,,2019-05-23_19h57.38.185,Probabilistic Learning,3.1.0,60,,,,,c,1,0.428,1,0,6,3,1,5,hiragana4.xlsx,hiragana41.xlsx,6,0,180,0,1,179,k,R,c,c,,,,,,,,,,,,,,,,,,,,,,
,,,,,,,,,,,,,,,,,,2019-05-23_19h57.38.185,Probabilistic Learning,3.1.0,60,,,,,m,1,0.647,1,0,6,3,1,5,hiragana4.xlsx,hiragana41.xlsx,6,0,180,25,1,179,n,M,m,,,m,,,,,,,,,,,,,,,,,,,,
,,,,,,,,,,,,,,,,,,2019-05-23_19h57.38.185,Probabilistic Learning,3.1.0,60,,,,,m,1,0.347,1,0,6,3,1,5,hiragana4.xlsx,hiragana41.xlsx,6,0,180,15,1,179,i,c,m,,m,,,,,,,,,,,,,,,,,,,,,
,,,,,,,,,,,,,,,,,,2019-05-23_19h57.38.185,Probabilistic Learning,3.1.0,60,,,,,c,1,0.48,1,0,6,3,1,5,hiragana4.xlsx,hiragana41.xlsx,6,0,180,22,1,179,M,n,c,,,c,,,,,,,,,,,,,,,,,,,,
,,,,,,,,,,,,,,,,,,2019-05-23_19h57.38.185,Probabilistic Learning,3.1.0,60,,,,,c,0,0.347,1,0,6,3,1,5,hiragana4.xlsx,hiragana41.xlsx,6,0,180,19,1,179,c,i,m,,c,,,,,,,,,,,,,,,,,,,,,
,,,,,,,,,,,,,,,,,,2019-05-23_19h57.38.185,Probabilistic Learning,3.1.0,60,,,,,c,1,0.364,1,0,6,3,1,5,hiragana4.xlsx,hiragana41.xlsx,6,0,180,11,1,179,c,i,c,,c,,,,,,,,,,,,,,,,,,,,,
,,,,,,,,,,,,,,,,,,2019-05-23_19h57.38.185,Probabilistic Learning,3.1.0,60,,,,,m,1,0.43,1,0,6,3,1,5,hiragana4.xlsx,hiragana41.xlsx,6,0,180,7,1,179,R,k,m,m,,,,,,,,,,,,,,,,,,,,,,
,,,,,,,,,,,,,,,,,,2019-05-23_19h57.38.185,Probabilistic Learning,3.1.0,60,,,,,m,0,0.362,1,0,6,3,1,5,hiragana4.xlsx,hiragana41.xlsx,6,0,180,9,1,179,R,k,c,m,,,,,,,,,,,,,,,,,,,,,,
,,,,,,,,,,,,,,,,,,2019-05-23_19h57.38.185,Probabilistic Learning,3.1.0,60,,,,,m,1,0.363,1,0,6,3,1,5,hiragana4.xlsx,hiragana41.xlsx,6,0,180,6,1,179,R,k,m,m,,,,,,,,,,,,,,,,,,,,,,
,,,,,,,,,,,,,,,,,,2019-05-23_19h57.38.185,Probabilistic Learning,3.1.0,60,,,,,m,1,0.33,1,0,6,3,1,5,hiragana4.xlsx,hiragana41.xlsx,6,0,180,5,1,179,R,k,m,m,,,,,,,,,,,,,,,,,,,,,,
,,,,,,,,,,,,,,,,,,2019-05-23_19h57.38.185,Probabilistic Learning,3.1.0,60,,,,,c,1,0.362,1,0,6,3,1,5,hiragana4.xlsx,hiragana41.xlsx,6,0,180,1,1,179,k,R,c,c,,,,,,,,,,,,,,,,,,,,,,
,,,,,,,,,,,,,,,,,,2019-05-23_19h57.38.185,Probabilistic Learning,3.1.0,60,,,,,m,0,0.446,1,0,6,3,1,5,hiragana4.xlsx,hiragana41.xlsx,6,0,180,28,1,179,n,M,c,,,m,,,,,,,,,,,,,,,,,,,,
,,,,,,,,,,,,,,,,,,2019-05-23_19h57.38.185,Probabilistic Learning,3.1.0,60,,,,,m,1,0.364,1,0,6,3,1,5,hiragana4.xlsx,hiragana41.xlsx,6,0,180,23,1,179,n,M,m,,,m,,,,,,,,,,,,,,,,,,,,
,,,,,,,,,,,,,,,,,,2019-05-23_19h57.38.185,Probabilistic Learning,3.1.0,60,,,,,c,0,0.43,1,0,6,3,1,5,hiragana4.xlsx,hiragana41.xlsx,6,0,180,14,1,179,i,c,m,,m,,,,,,,,,,,,,,,,,,,,,
,,,,,,,,,,,,,,,,,,2019-05-23_19h57.38.185,Probabilistic Learning,3.1.0,60,,,,,m,1,0.447,1,0,6,3,1,5,hiragana4.xlsx,hiragana41.xlsx,6,0,180,4,1,179,R,k,m,m,,,,,,,,,,,,,,,,,,,,,,
,,,,,,,,,,,,,,,,,,2019-05-23_19h57.38.185,Probabilistic Learning,3.1.0,60,,,,,m,0,0.446,1,0,6,3,1,5,hiragana4.xlsx,hiragana41.xlsx,6,0,180,18,1,179,i,c,c,,m,,,,,,,,,,,,,,,,,,,,,
,,,,,,,,,,,,,,,,,,2019-05-23_19h57.38.185,Probabilistic Learning,3.1.0,60,,,,,c,1,0.362,1,0,6,3,1,5,hiragana4.xlsx,hiragana41.xlsx,6,0,180,10,1,179,c,i,c,,c,,,,,,,,,,,,,,,,,,,,,
,,,,,,,,,,,,,,,,,,2019-05-23_19h57.38.185,Probabilistic Learning,3.1.0,60,,,,,c,1,0.345,1,0,6,3,1,5,hiragana4.xlsx,hiragana41.xlsx,6,0,180,12,1,179,c,i,c,,c,,,,,,,,,,,,,,,,,,,,,
,,,,,,,,,,,,,,,,,,2019-05-23_19h57.38.185,Probabilistic Learning,3.1.0,60,,,,,c,1,0.345,1,0,6,3,1,5,hiragana4.xlsx,hiragana41.xlsx,6,0,180,13,1,179,c,i,c,,c,,,,,,,,,,,,,,,,,,,,,
,,,,,,,,,,,,,,,,,,2019-05-23_19h57.38.185,Probabilistic Learning,3.1.0,60,,,,,m,0,0.363,1,0,6,3,1,5,hiragana4.xlsx,hiragana41.xlsx,6,0,180,3,1,179,k,R,c,c,,,,,,,,,,,,,,,,,,,,,,
,,,,,,,,,,,,,,,,,,2019-05-23_19h57.38.185,Probabilistic Learning,3.1.0,60,,,,,c,0,0.461,1,0,6,3,1,5,hiragana4.xlsx,hiragana41.xlsx,6,0,180,27,1,179,M,n,m,,,c,,,,,,,,,,,,,,,,,,,,
,,,,,,,,,,,,,,,,,,2019-05-23_19h57.38.185,Probabilistic Learning,3.1.0,60,,,,,c,1,0.464,1,0,6,3,1,5,hiragana4.xlsx,hiragana41.xlsx,,,,,,,,,,,,,space,0.898,space,0.763,c,0.531,2,0,92,37,1,91,n,R,F,B,,c,,
,,,,,,,,,,,,,,,,,,2019-05-23_19h57.38.185,Probabilistic Learning,3.1.0,60,,,,,,,,1,0,6,3,1,5,hiragana4.xlsx,hiragana41.xlsx,,,,,,,,,,,,,,,,,m,0.097,2,0,92,40,1,91,c,n,c,f,,,,
,,,,,,,,,,,,,,,,,,2019-05-23_19h57.38.185,Probabilistic Learning,3.1.0,60,,,,,,,,1,0,6,3,1,5,hiragana4.xlsx,hiragana41.xlsx,,,,,,,,,,,,,,,,,m,0.214,2,0,92,18,1,91,k,n,A,F,c,,,
,,,,,,,,,,,,,,,,,,2019-05-23_19h57.38.185,Probabilistic Learning,3.1.0,60,,,,,,,,1,0,6,3,1,5,hiragana4.xlsx,hiragana41.xlsx,,,,,,,,,,,,,,,,,m,0.212,2,0,92,8,1,91,c,k,C,A,m,,,
,,,,,,,,,,,,,,,,,,2019-05-23_19h57.38.185,Probabilistic Learning,3.1.0,60,,,,,,,,1,0,6,3,1,5,hiragana4.xlsx,hiragana41.xlsx,,,,,,,,,,,,,,,,,m,0.214,2,0,92,1,1,91,R,k,B,A,,,,
,,,,,,,,,,,,,,,,,,2019-05-23_19h57.38.185,Probabilistic Learning,3.1.0,60,,,,,,,,1,0,6,3,1,5,hiragana4.xlsx,hiragana41.xlsx,,,,,,,,,,,,,,,,,c,0.214,2,0,92,0,1,91,k,R,A,B,,,,
,,,,,,,,,,,,,,,,,,2019-05-23_19h57.38.185,Probabilistic Learning,3.1.0,60,,,,,,,,1,0,6,3,1,5,hiragana4.xlsx,hiragana41.xlsx,,,,,,,,,,,,,,,,,m,0.013,2,0,92,22,1,91,R,c,B,C,,m,,
,,,,,,,,,,,,,,,,,,2019-05-23_19h57.38.185,Probabilistic Learning,3.1.0,60,,,,,,,,1,0,6,3,1,5,hiragana4.xlsx,hiragana41.xlsx,,,,,,,,,,,,,,,,,m,0.231,2,0,92,3,1,91,i,c,D,C,,,,
,,,,,,,,,,,,,,,,,,2019-05-23_19h57.38.185,Probabilistic Learning,3.1.0,60,,,,,,,,1,0,6,3,1,5,hiragana4.xlsx,hiragana41.xlsx,,,,,,,,,,,,,,,,,m,0.012,2,0,92,45,1,91,n,i,f,d,,,,
,,,,,,,,,,,,,,,,,,2019-05-23_19h57.38.185,Probabilistic Learning,3.1.0,60,,,,,,,,1,0,6,3,1,5,hiragana4.xlsx,hiragana41.xlsx,,,,,,,,,,,,,,,,,c,0.329,2,0,92,17,1,91,M,k,E,A,m,,,
,,,,,,,,,,,,,,,,,,2019-05-23_19h57.38.185,Probabilistic Learning,3.1.0,60,,,,,,,,1,0,6,3,1,5,hiragana4.xlsx,hiragana41.xlsx,,,,,,,,,,,,,,,,,m,0.063,2,0,92,33,1,91,M,R,E,B,,c,,
,,,,,,,,,,,,,,,,,,2019-05-23_19h57.38.185,Probabilistic Learning,3.1.0,60,,,,,,,,1,0,6,3,1,5,hiragana4.xlsx,hiragana41.xlsx,,,,,,,,,,,,,,,,,m,0.228,2,0,92,35,1,91,R,n,B,F,,m,,
,,,,,,,,,,,,,,,,,,2019-05-23_19h57.38.185,Probabilistic Learning,3.1.0,60,,,,,,,,1,0,6,3,1,5,hiragana4.xlsx,hiragana41.xlsx,,,,,,,,,,,,,,,,,m,0.011,2,0,92,36,1,91,n,R,F,B,,c,,
,,,,,,,,,,,,,,,,,,2019-05-23_19h57.38.185,Probabilistic Learning,3.1.0,60,,,,,,,,1,0,6,3,1,5,hiragana4.xlsx,hiragana41.xlsx,,,,,,,,,,,,,,,,,c,0.178,2,0,92,38,1,91,c,M,C,E,,,,
,,,,,,,,,,,,,,,,,,2019-05-23_19h57.38.185,Probabilistic Learning,3.1.0,60,,,,,,,,1,0,6,3,1,5,hiragana4.xlsx,hiragana41.xlsx,,,,,,,,,,,,,,,,,c,0.114,2,0,92,7,1,91,k,c,A,C,c,,,
,,,,,,,,,,,,,,,,,,2019-05-23_19h57.38.185,Probabilistic Learning,3.1.0,60,,,,,,,,1,0,6,3,1,5,hiragana4.xlsx,hiragana41.xlsx,,,,,,,,,,,,,,,,,m,0.197,2,0,92,6,1,91,k,c,A,C,c,,,
,,,,,,,,,,,,,,,,,,2019-05-23_19h57.38.185,Probabilistic Learning,3.1.0,60,,,,,,,,1,0,6,3,1,5,hiragana4.xlsx,hiragana41.xlsx,,,,,,,,,,,,,,,,,c,0.196,2,0,92,4,1,91,M,n,E,F,,,,
,,,,,,,,,,,,,,,,,,2019-05-23_19h57.38.185,Probabilistic Learning,3.1.0,60,,,,,,,,1,0,6,3,1,5,hiragana4.xlsx,hiragana41.xlsx,,,,,,,,,,,,,,,,,c,0.095,2,0,92,26,1,91,R,i,B,D,,m,,
,,,,,,,,,,,,,,,,,,2019-05-23_19h57.38.185,Probabilistic Learning,3.1.0,60,,,,,,,,1,0,6,3,1,5,hiragana4.xlsx,hiragana41.xlsx,,,,,,,,,,,,,,,,,m,0.195,2,0,92,32,1,91,M,R,E,B,,c,,
,,,,,,,,,,,,,,,,,,2019-05-23_19h57.38.185,Probabilistic Learning,3.1.0,60,,,,,,,,1,0,6,3,1,5,hiragana4.xlsx,hiragana41.xlsx,,,,,,,,,,,,,,,,,m,0.181,2,0,92,34,1,91,R,n,B,F,,m,,
,,,,,,,,,,,,,,,,,,2019-05-23_19h57.38.185,Probabilistic Learning,3.1.0,60,,,,,,,,1,0,6,3,1,5,hiragana4.xlsx,hiragana41.xlsx,,,,,,,,,,,,,,,,,c,0.296,2,0,92,27,1,91,R,i,B,D,,m,,
,,,,,,,,,,,,,,,,,,2019-05-23_19h57.38.185,Probabilistic Learning,3.1.0,60,,,,,,,,1,0,6,3,1,5,hiragana4.xlsx,hiragana41.xlsx,,,,,,,,,,,,,,,,,c,0.213,2,0,92,43,1,91,M,i,e,d,,,,
,,,,,,,,,,,,,,,,,,2019-05-23_19h57.38.185,Probabilistic Learning,3.1.0,60,,,,,,,,1,0,6,3,1,5,hiragana4.xlsx,hiragana41.xlsx,,,,,,,,,,,,,,,,,m,0.179,2,0,92,31,1,91,R,M,B,E,,m,,
,,,,,,,,,,,,,,,,,,2019-05-23_19h57.38.185,Probabilistic Learning,3.1.0,60,,,,,,,,1,0,6,3,1,5,hiragana4.xlsx,hiragana41.xlsx,,,,,,,,,,,,,,,,,m,0.196,2,0,92,5,1,91,n,M,F,E,,,,
,,,,,,,,,,,,,,,,,,2019-05-23_19h57.38.185,Probabilistic Learning,3.1.0,60,,,,,,,,1,0,6,3,1,5,hiragana4.xlsx,hiragana41.xlsx,,,,,,,,,,,,,,,,,m,0.213,2,0,92,11,1,91,k,i,A,D,c,,,
,,,,,,,,,,,,,,,,,,2019-05-23_19h57.38.185,Probabilistic Learning,3.1.0,60,,,,,,,,1,0,6,3,1,5,hiragana4.xlsx,hiragana41.xlsx,,,,,,,,,,,,,,,,,m,0.246,2,0,92,44,1,91,i,n,d,f,,,,
,,,,,,,,,,,,,,,,,,2019-05-23_19h57.38.185,Probabilistic Learning,3.1.0,60,,,,,,,,1,0,6,3,1,5,hiragana4.xlsx,hiragana41.xlsx,,,,,,,,,,,,,,,,,m,0.212,2,0,92,25,1,91,c,R,C,B,,c,,
,,,,,,,,,,,,,,,,,,2019-05-23_19h57.38.185,Probabilistic Learning,3.1.0,60,,,,,,,,1,0,6,3,1,5,hiragana4.xlsx,hiragana41.xlsx,,,,,,,,,,,,,,,,,m,0.231,2,0,92,39,1,91,M,c,e,c,,,,
,,,,,,,,,,,,,,,,,,2019-05-23_19h57.38.185,Probabilistic Learning,3.1.0,60,,,,,,,,1,0,6,3,1,5,hiragana4.xlsx,hiragana41.xlsx,,,,,,,,,,,,,,,,,m,0.062,2,0,92,15,1,91,k,M,A,E,c,,,
,,,,,,,,,,,,,,,,,,2019-05-23_19h57.38.185,Probabilistic Learning,3.1.0,60,,,,,,,,1,0,6,3,1,5,hiragana4.xlsx,hiragana41.xlsx,,,,,,,,,,,,,,,,,c,0.047,2,0,92,19,1,91,k,n,A,F,c,,,
,,,,,,,,,,,,,,,,,,2019-05-23_19h57.38.185,Probabilistic Learning,3.1.0,60,,,,,,,,1,0,6,3,1,5,hiragana4.xlsx,hiragana41.xlsx,,,,,,,,,,,,,,,,,m,0.197,2,0,92,23,1,91,R,c,B,C,,m,,
,,,,,,,,,,,,,,,,,,2019-05-23_19h57.38.185,Probabilistic Learning,3.1.0,60,,,,,,,,1,0,6,3,1,5,hiragana4.xlsx,hiragana41.xlsx,,,,,,,,,,,,,,,,,m,0.195,2,0,92,13,1,91,i,k,D,A,m,,,
,,,,,,,,,,,,,,,,,,2019-05-23_19h57.38.185,Probabilistic Learning,3.1.0,60,,,,,,,,1,0,6,3,1,5,hiragana4.xlsx,hiragana41.xlsx,,,,,,,,,,,,,,,,,m,0.179,2,0,92,9,1,91,c,k,C,A,m,,,
,,,,,,,,,,,,,,,,,,2019-05-23_19h57.38.185,Probabilistic Learning,3.1.0,60,,,,,,,,1,0,6,3,1,5,hiragana4.xlsx,hiragana41.xlsx,,,,,,,,,,,,,,,,,m,0.213,2,0,92,24,1,91,c,R,C,B,,c,,
,,,,,,,,,,,,,,,,,,2019-05-23_19h57.38.185,Probabilistic Learning,3.1.0,60,,,,,,,,1,0,6,3,1,5,hiragana4.xlsx,hiragana41.xlsx,,,,,,,,,,,,,,,,,c,0.244,2,0,92,10,1,91,k,i,A,D,c,,,
,,,,,,,,,,,,,,,,,,2019-05-23_19h57.38.185,Probabilistic Learning,3.1.0,60,,,,,,,,1,0,6,3,1,5,hiragana4.xlsx,hiragana41.xlsx,,,,,,,,,,,,,,,,,m,0.096,2,0,92,30,1,91,R,M,B,E,,m,,
,,,,,,,,,,,,,,,,,,2019-05-23_19h57.38.185,Probabilistic Learning,3.1.0,60,,,,,,,,1,0,6,3,1,5,hiragana4.xlsx,hiragana41.xlsx,,,,,,,,,,,,,,,,,m,0.178,2,0,92,20,1,91,n,k,F,A,m,,,
,,,,,,,,,,,,,,,,,,2019-05-23_19h57.38.185,Probabilistic Learning,3.1.0,60,,,,,,,,1,0,6,3,1,5,hiragana4.xlsx,hiragana41.xlsx,,,,,,,,,,,,,,,,,m,0.18,2,0,92,21,1,91,n,k,F,A,m,,,
,,,,,,,,,,,,,,,,,,2019-05-23_19h57.38.185,Probabilistic Learning,3.1.0,60,,,,,,,,1,0,6,3,1,5,hiragana4.xlsx,hiragana41.xlsx,,,,,,,,,,,,,,,,,m,0.214,2,0,92,2,1,91,c,i,C,D,,,,
,,,,,,,,,,,,,,,,,,2019-05-23_19h57.38.185,Probabilistic Learning,3.1.0,60,,,,,,,,1,0,6,3,1,5,hiragana4.xlsx,hiragana41.xlsx,,,,,,,,,,,,,,,,,m,0.212,2,0,92,16,1,91,M,k,E,A,m,,,
,,,,,,,,,,,,,,,,,,2019-05-23_19h57.38.185,Probabilistic Learning,3.1.0,60,,,,,,,,1,0,6,3,1,5,hiragana4.xlsx,hiragana41.xlsx,,,,,,,,,,,,,,,,,c,0.213,2,0,92,12,1,91,i,k,D,A,m,,,
,,,,,,,,,,,,,,,,,,2019-05-23_19h57.38.185,Probabilistic Learning,3.1.0,60,,,,,,,,1,0,6,3,1,5,hiragana4.xlsx,hiragana41.xlsx,,,,,,,,,,,,,,,,,m,0.214,2,0,92,14,1,91,k,M,A,E,c,,,
,,,,,,,,,,,,,,,,,,2019-05-23_19h57.38.185,Probabilistic Learning,3.1.0,60,,,,,,,,1,0,6,3,1,5,hiragana4.xlsx,hiragana41.xlsx,,,,,,,,,,,,,,,,,m,0.262,2,0,92,28,1,91,i,R,D,B,,c,,
,,,,,,,,,,,,,,,,,,2019-05-23_19h57.38.185,Probabilistic Learning,3.1.0,60,,,,,,,,1,0,6,3,1,5,hiragana4.xlsx,hiragana41.xlsx,,,,,,,,,,,,,,,,,m,0.23,2,0,92,29,1,91,i,R,D,B,,c,,
,,,,,,,,,,,,,,,,,,2019-05-23_19h57.38.185,Probabilistic Learning,3.1.0,60,,,,,,,,1,0,6,3,1,5,hiragana4.xlsx,hiragana41.xlsx,,,,,,,,,,,,,,,,,c,0.23,2,0,92,41,1,91,n,c,f,c,,,,
,,,,,,,,,,,,,,,,,,2019-05-23_19h57.38.185,Probabilistic Learning,3.1.0,60,,,,,,,,1,0,6,3,1,5,hiragana4.xlsx,hiragana41.xlsx,,,,,,,,,,,,,,,,,c,0.029,2,0,92,42,1,91,i,M,d,e,,,,
,,,,,,,,,,,,,,,,,,2019-05-23_19h57.38.185,Probabilistic Learning,3.1.0,60,,,,,,,,1,0,6,3,1,5,hiragana4.xlsx,hiragana41.xlsx,,,,,,,,,,,,,,,,,c,0.164,2,0,92,3,1,91,i,c,D,C,,,,
,,,,,,,,,,,,,,,,,,2019-05-23_19h57.38.185,Probabilistic Learning,3.1.0,60,,,,,,,,1,0,6,3,1,5,hiragana4.xlsx,hiragana41.xlsx,,,,,,,,,,,,,,,,,c,0.212,2,0,92,23,1,91,R,c,B,C,,m,,
,,,,,,,,,,,,,,,,,,2019-05-23_19h57.38.185,Probabilistic Learning,3.1.0,60,,,,,,,,1,0,6,3,1,5,hiragana4.xlsx,hiragana41.xlsx,,,,,,,,,,,,,,,,,c,0.214,2,0,92,30,1,91,R,M,B,E,,m,,
,,,,,,,,,,,,,,,,,,2019-05-23_19h57.38.185,Probabilistic Learning,3.1.0,60,,,,,,,,1,0,6,3,1,5,hiragana4.xlsx,hiragana41.xlsx,,,,,,,,,,,,,,,,,c,0.246,2,0,92,18,1,91,k,n,A,F,c,,,
,,,,,,,,,,,,,,,,,,2019-05-23_19h57.38.185,Probabilistic Learning,3.1.0,60,,,,,,,,1,0,6,3,1,5,hiragana4.xlsx,hiragana41.xlsx,,,,,,,,,,,,,,,,,c,0.064,2,0,92,5,1,91,n,M,F,E,,,,
,,,,,,,,,,,,,,,,,,2019-05-23_19h57.38.185,Probabilistic Learning,3.1.0,60,,,,,,,,1,0,6,3,1,5,hiragana4.xlsx,hiragana41.xlsx,,,,,,,,,,,,,,,,,m,0.147,2,0,92,44,1,91,i,n,d,f,,,,
,,,,,,,,,,,,,,,,,,2019-05-23_19h57.38.185,Probabilistic Learning,3.1.0,60,,,,,,,,1,0,6,3,1,5,hiragana4.xlsx,hiragana41.xlsx,,,,,,,,,,,,,,,,,c,0.079,2,0,92,33,1,91,M,R,E,B,,c,,
,,,,,,,,,,,,,,,,,,2019-05-23_19h57.38.185,Probabilistic Learning,3.1.0,60,,,,,,,,1,0,6,3,1,5,hiragana4.xlsx,hiragana41.xlsx,,,,,,,,,,,,,,,,,c,0.213,2,0,92,39,1,91,M,c,e,c,,,,
,,,,,,,,,,,,,,,,,,2019-05-23_19h57.38.185,Probabilistic Learning,3.1.0,60,,,,,,,,1,0,6,3,1,5,hiragana4.xlsx,hiragana41.xlsx,,,,,,,,,,,,,,,,,m,0.031,2,0,92,13,1,91,i,k,D,A,m,,,
,,,,,,,,,,,,,,,,,,2019-05-23_19h57.38.185,Probabilistic Learning,3.1.0,60,,,,,,,,1,0,6,3,1,5,hiragana4.xlsx,hiragana41.xlsx,,,,,,,,,,,,,,,,,m,0.131,2,0,92,9,1,91,c,k,C,A,m,,,
,,,,,,,,,,,,,,,,,,2019-05-23_19h57.38.185,Probabilistic Learning,3.1.0,60,,,,,,,,1,0,6,3,1,5,hiragana4.xlsx,hiragana41.xlsx,,,,,,,,,,,,,,,,,m,0.213,2,0,92,27,1,91,R,i,B,D,,m,,
,,,,,,,,,,,,,,,,,,2019-05-23_19h57.38.185,Probabilistic Learning,3.1.0,60,,,,,,,,1,0,6,3,1,5,hiragana4.xlsx,hiragana41.xlsx,,,,,,,,,,,,,,,,,m,0.164,2,0,92,17,1,91,M,k,E,A,m,,,
,,,,,,,,,,,,,,,,,,2019-05-23_19h57.38.185,Probabilistic Learning,3.1.0,60,,,,,,,,1,0,6,3,1,5,hiragana4.xlsx,hiragana41.xlsx,,,,,,,,,,,,,,,,,c,0.246,2,0,92,0,1,91,k,R,A,B,,,,
,,,,,,,,,,,,,,,,,,2019-05-23_19h57.38.185,Probabilistic Learning,3.1.0,60,,,,,,,,1,0,6,3,1,5,hiragana4.xlsx,hiragana41.xlsx,,,,,,,,,,,,,,,,,m,0.212,2,0,92,8,1,91,c,k,C,A,m,,,
,,,,,,,,,,,,,,,,,,2019-05-23_19h57.38.185,Probabilistic Learning,3.1.0,60,,,,,,,,1,0,6,3,1,5,hiragana4.xlsx,hiragana41.xlsx,,,,,,,,,,,,,,,,,m,0.162,2,0,92,45,1,91,n,i,f,d,,,,
,,,,,,,,,,,,,,,,,,2019-05-23_19h57.38.185,Probabilistic Learning,3.1.0,60,,,,,,,,1,0,6,3,1,5,hiragana4.xlsx,hiragana41.xlsx,,,,,,,,,,,,,,,,,c,0.213,2,0,92,38,1,91,c,M,C,E,,,,
,,,,,,,,,,,,,,,,,,2019-05-23_19h57.38.185,Probabilistic Learning,3.1.0,60,,,,,,,,1,0,6,3,1,5,hiragana4.xlsx,hiragana41.xlsx,,,,,,,,,,,,,,,,,c,0.163,2,0,92,36,1,91,n,R,F,B,,c,,
,,,,,,,,,,,,,,,,,,2019-05-23_19h57.38.185,Probabilistic Learning,3.1.0,60,,,,,,,,1,0,6,3,1,5,hiragana4.xlsx,hiragana41.xlsx,,,,,,,,,,,,,,,,,m,0.197,2,0,92,16,1,91,M,k,E,A,m,,,
,,,,,,,,,,,,,,,,,,2019-05-23_19h57.38.185,Probabilistic Learning,3.1.0,60,,,,,,,,1,0,6,3,1,5,hiragana4.xlsx,hiragana41.xlsx,,,,,,,,,,,,,,,,,m,0.197,2,0,92,4,1,91,M,n,E,F,,,,
,,,,,,,,,,,,,,,,,,2019-05-23_19h57.38.185,Probabilistic Learning,3.1.0,60,,,,,,,,1,0,6,3,1,5,hiragana4.xlsx,hiragana41.xlsx,,,,,,,,,,,,,,,,,c,0.131,2,0,92,37,1,91,n,R,F,B,,c,,
,,,,,,,,,,,,,,,,,,2019-05-23_19h57.38.185,Probabilistic Learning,3.1.0,60,,,,,,,,1,0,6,3,1,5,hiragana4.xlsx,hiragana41.xlsx,,,,,,,,,,,,,,,,,c,0.064,2,0,92,25,1,91,c,R,C,B,,c,,
,,,,,,,,,,,,,,,,,,2019-05-23_19h57.38.185,Probabilistic Learning,3.1.0,60,,,,,,,,1,0,6,3,1,5,hiragana4.xlsx,hiragana41.xlsx,,,,,,,,,,,,,,,,,c,0.281,2,0,92,21,1,91,n,k,F,A,m,,,
,,,,,,,,,,,,,,,,,,2019-05-23_19h57.38.185,Probabilistic Learning,3.1.0,60,,,,,,,,1,0,6,3,1,5,hiragana4.xlsx,hiragana41.xlsx,,,,,,,,,,,,,,,,,m,0.129,2,0,92,6,1,91,k,c,A,C,c,,,
,,,,,,,,,,,,,,,,,,2019-05-23_19h57.38.185,Probabilistic Learning,3.1.0,60,,,,,,,,1,0,6,3,1,5,hiragana4.xlsx,hiragana41.xlsx,,,,,,,,,,,,,,,,,m,0.295,2,0,92,35,1,91,R,n,B,F,,m,,
,,,,,,,,,,,,,,,,,,2019-05-23_19h57.38.185,Probabilistic Learning,3.1.0,60,,,,,,,,1,0,6,3,1,5,hiragana4.xlsx,hiragana41.xlsx,,,,,,,,,,,,,,,,,m,0.298,2,0,92,42,1,91,i,M,d,e,,,,
,,,,,,,,,,,,,,,,,,2019-05-23_19h57.38.185,Probabilistic Learning,3.1.0,60,,,,,,,,1,0,6,3,1,5,hiragana4.xlsx,hiragana41.xlsx,,,,,,,,,,,,,,,,,m,0.198,2,0,92,7,1,91,k,c,A,C,c,,,
,,,,,,,,,,,,,,,,,,2019-05-23_19h57.38.185,Probabilistic Learning,3.1.0,60,,,,,,,,1,0,6,3,1,5,hiragana4.xlsx,hiragana41.xlsx,,,,,,,,,,,,,,,,,m,0.014,2,0,92,12,1,91,i,k,D,A,m,,,
,,,,,,,,,,,,,,,,,,2019-05-23_19h57.38.185,Probabilistic Learning,3.1.0,60,,,,,,,,1,0,6,3,1,5,hiragana4.xlsx,hiragana41.xlsx,,,,,,,,,,,,,,,,,c,0.162,2,0,92,19,1,91,k,n,A,F,c,,,
,,,,,,,,,,,,,,,,,,2019-05-23_19h57.38.185,Probabilistic Learning,3.1.0,60,,,,,,,,1,0,6,3,1,5,hiragana4.xlsx,hiragana41.xlsx,,,,,,,,,,,,,,,,,c,0.231,2,0,92,22,1,91,R,c,B,C,,m,,
,,,,,,,,,,,,,,,,,,2019-05-23_19h57.38.185,Probabilistic Learning,3.1.0,60,,,,,,,,1,0,6,3,1,5,hiragana4.xlsx,hiragana41.xlsx,,,,,,,,,,,,,,,,,m,0.179,2,0,92,40,1,91,c,n,c,f,,,,
,,,,,,,,,,,,,,,,,,2019-05-23_19h57.38.185,Probabilistic Learning,3.1.0,60,,,,,,,,1,0,6,3,1,5,hiragana4.xlsx,hiragana41.xlsx,,,,,,,,,,,,,,,,,c,0.197,2,0,92,43,1,91,M,i,e,d,,,,
,,,,,,,,,,,,,,,,,,2019-05-23_19h57.38.185,Probabilistic Learning,3.1.0,60,,,,,,,,1,0,6,3,1,5,hiragana4.xlsx,hiragana41.xlsx,,,,,,,,,,,,,,,,,c,0.113,2,0,92,15,1,91,k,M,A,E,c,,,
,,,,,,,,,,,,,,,,,,2019-05-23_19h57.38.185,Probabilistic Learning,3.1.0,60,,,,,,,,1,0,6,3,1,5,hiragana4.xlsx,hiragana41.xlsx,,,,,,,,,,,,,,,,,c,0.181,2,0,92,34,1,91,R,n,B,F,,m,,
,,,,,,,,,,,,,,,,,,2019-05-23_19h57.38.185,Probabilistic Learning,3.1.0,60,,,,,,,,1,0,6,3,1,5,hiragana4.xlsx,hiragana41.xlsx,,,,,,,,,,,,,,,,,m,0.229,2,0,92,14,1,91,k,M,A,E,c,,,
,,,,,,,,,,,,,,,,,,2019-05-23_19h57.38.185,Probabilistic Learning,3.1.0,60,,,,,,,,1,0,6,3,1,5,hiragana4.xlsx,hiragana41.xlsx,,,,,,,,,,,,,,,,,c,0.181,2,0,92,11,1,91,k,i,A,D,c,,,
,,,,,,,,,,,,,,,,,,2019-05-23_19h57.38.185,Probabilistic Learning,3.1.0,60,,,,,,,,1,0,6,3,1,5,hiragana4.xlsx,hiragana41.xlsx,,,,,,,,,,,,,,,,,c,0.196,2,0,92,31,1,91,R,M,B,E,,m,,
,,,,,,,,,,,,,,,,,,2019-05-23_19h57.38.185,Probabilistic Learning,3.1.0,60,,,,,,,,1,0,6,3,1,5,hiragana4.xlsx,hiragana41.xlsx,,,,,,,,,,,,,,,,,m,0.247,2,0,92,26,1,91,R,i,B,D,,m,,
,,,,,,,,,,,,,,,,,,2019-05-23_19h57.38.185,Probabilistic Learning,3.1.0,60,,,,,,,,1,0,6,3,1,5,hiragana4.xlsx,hiragana41.xlsx,,,,,,,,,,,,,,,,,c,0.131,2,0,92,32,1,91,M,R,E,B,,c,,
,,,,,,,,,,,,,,,,,,2019-05-23_19h57.38.185,Probabilistic Learning,3.1.0,60,,,,,,,,1,0,6,3,1,5,hiragana4.xlsx,hiragana41.xlsx,,,,,,,,,,,,,,,,,c,0.13,2,0,92,29,1,91,i,R,D,B,,c,,
,,,,,,,,,,,,,,,,,,2019-05-23_19h57.38.185,Probabilistic Learning,3.1.0,60,,,,,,,,1,0,6,3,1,5,hiragana4.xlsx,hiragana41.xlsx,,,,,,,,,,,,,,,,,c,0.012,2,0,92,24,1,91,c,R,C,B,,c,,
,,,,,,,,,,,,,,,,,,2019-05-23_19h57.38.185,Probabilistic Learning,3.1.0,60,,,,,,,,1,0,6,3,1,5,hiragana4.xlsx,hiragana41.xlsx,,,,,,,,,,,,,,,,,m,0.196,2,0,92,2,1,91,c,i,C,D,,,,
,,,,,,,,,,,,,,,,,,2019-05-23_19h57.38.185,Probabilistic Learning,3.1.0,60,,,,,,,,1,0,6,3,1,5,hiragana4.xlsx,hiragana41.xlsx,,,,,,,,,,,,,,,,,c,0.146,2,0,92,41,1,91,n,c,f,c,,,,
,,,,,,,,,,,,,,,,,,2019-05-23_19h57.38.185,Probabilistic Learning,3.1.0,60,,,,,,,,1,0,6,3,1,5,hiragana4.xlsx,hiragana41.xlsx,,,,,,,,,,,,,,,,,c,0.18,2,0,92,28,1,91,i,R,D,B,,c,,
,,,,,,,,,,,,,,,,,,2019-05-23_19h57.38.185,Probabilistic Learning,3.1.0,60,,,,,,,,1,0,6,3,1,5,hiragana4.xlsx,hiragana41.xlsx,,,,,,,,,,,,,,,,,c,0.229,2,0,92,20,1,91,n,k,F,A,m,,,
,,,,,,,,,,,,,,,,,,2019-05-23_19h57.38.185,Probabilistic Learning,3.1.0,60,,,,,,,,1,0,6,3,1,5,hiragana4.xlsx,hiragana41.xlsx,,,,,,,,,,,,,,,,,m,0.112,2,0,92,10,1,91,k,i,A,D,c,,,
,,,,,,,,,,,,,,,,,,2019-05-23_19h57.38.185,Probabilistic Learning,3.1.0,60,,,,,,,,1,0,6,3,1,5,hiragana4.xlsx,hiragana41.xlsx,,,,,,,,,,,,,,,,,c,0.131,2,0,92,1,1,91,R,k,B,A,,,,
,,,,,,,,,,,,,,,,,,2019-05-23_19h57.38.185,Probabilistic Learning,3.1.0,60,,,,,,,,1,0,6,3,1,5,hiragana4.xlsx,hiragana41.xlsx,,,,,,,,,,,,,,,,,,,,,,,,,,,,,,,space,8.364
,,,,,,,,,,,,,,,,,,2019-05-23_19h57.38.185,Probabilistic Learning,3.1.0,60,,,space,0.729,c,0,0.51,1,0,6,1,1,5,hiragana2.xlsx,hiragana21.xlsx,6,0,180,7,1,179,J,s,m,m,,,,,,,,,,,,,,,,,,,,,,
,,,,,,,,,,,,,,,,,,2019-05-23_19h57.38.185,Probabilistic Learning,3.1.0,60,,,,,c,0,0.347,1,0,6,1,1,5,hiragana2.xlsx,hiragana21.xlsx,6,0,180,5,1,179,J,s,m,m,,,,,,,,,,,,,,,,,,,,,,
,,,,,,,,,,,,,,,,,,2019-05-23_19h57.38.185,Probabilistic Learning,3.1.0,60,,,,,m,0,0.643,1,0,6,1,1,5,hiragana2.xlsx,hiragana21.xlsx,6,0,180,29,1,179,W,V,c,,,m,,,,,,,,,,,,,,,,,,,,
,,,,,,,,,,,,,,,,,,2019-05-23_19h57.38.185,Probabilistic Learning,3.1.0,60,,,,,c,1,0.66,1,0,6,1,1,5,hiragana2.xlsx,hiragana21.xlsx,6,0,180,10,1,179,o,b,c,,c,,,,,,,,,,,,,,,,,,,,,
,,,,,,,,,,,,,,,,,,2019-05-23_19h57.38.185,Probabilistic Learning,3.1.0,60,,,,,m,1,0.395,1,0,6,1,1,5,hiragana2.xlsx,hiragana21.xlsx,6,0,180,24,1,179,W,V,m,,,m,,,,,,,,,,,,,,,,,,,,
,,,,,,,,,,,,,,,,,,2019-05-23_19h57.38.185,Probabilistic Learning,3.1.0,60,,,,,c,1,0.847,1,0,6,1,1,5,hiragana2.xlsx,hiragana21.xlsx,6,0,180,9,1,179,J,s,c,m,,,,,,,,,,,,,,,,,,,,,,
,,,,,,,,,,,,,,,,,,2019-05-23_19h57.38.185,Probabilistic Learning,3.1.0,60,,,,,m,1,0.53,1,0,6,1,1,5,hiragana2.xlsx,hiragana21.xlsx,6,0,180,8,1,179,s,J,m,c,,,,,,,,,,,,,,,,,,,,,,
,,,,,,,,,,,,,,,,,,2019-05-23_19h57.38.185,Probabilistic Learning,3.1.0,60,,,,,m,1,0.563,1,0,6,1,1,5,hiragana2.xlsx,hiragana21.xlsx,6,0,180,25,1,179,W,V,m,,,m,,,,,,,,,,,,,,,,,,,,
,,,,,,,,,,,,,,,,,,2019-05-23_19h57.38.185,Probabilistic Learning,3.1.0,60,,,,,m,1,0.613,1,0,6,1,1,5,hiragana2.xlsx,hiragana21.xlsx,6,0,180,16,1,179,b,o,m,,m,,,,,,,,,,,,,,,,,,,,,
,,,,,,,,,,,,,,,,,,2019-05-23_19h57.38.185,Probabilistic Learning,3.1.0,60,,,,,c,0,0.58,1,0,6,1,1,5,hiragana2.xlsx,hiragana21.xlsx,6,0,180,27,1,179,V,W,m,,,c,,,,,,,,,,,,,,,,,,,,
,,,,,,,,,,,,,,,,,,2019-05-23_19h57.38.185,Probabilistic Learning,3.1.0,60,,,,,m,1,0.545,1,0,6,1,1,5,hiragana2.xlsx,hiragana21.xlsx,6,0,180,23,1,179,W,V,m,,,m,,,,,,,,,,,,,,,,,,,,
,,,,,,,,,,,,,,,,,,2019-05-23_19h57.38.185,Probabilistic Learning,3.1.0,60,,,,,c,1,0.397,1,0,6,1,1,5,hiragana2.xlsx,hiragana21.xlsx,6,0,180,20,1,179,V,W,c,,,c,,,,,,,,,,,,,,,,,,,,
,,,,,,,,,,,,,,,,,,2019-05-23_19h57.38.185,Probabilistic Learning,3.1.0,60,,,,,m,0,0.497,1,0,6,1,1,5,hiragana2.xlsx,hiragana21.xlsx,6,0,180,17,1,179,b,o,c,,m,,,,,,,,,,,,,,,,,,,,,
,,,,,,,,,,,,,,,,,,2019-05-23_19h57.38.185,Probabilistic Learning,3.1.0,60,,,,,m,0,0.548,1,0,6,1,1,5,hiragana2.xlsx,hiragana21.xlsx,6,0,180,3,1,179,s,J,c,c,,,,,,,,,,,,,,,,,,,,,,
,,,,,,,,,,,,,,,,,,2019-05-23_19h57.38.185,Probabilistic Learning,3.1.0,60,,,,,c,1,0.497,1,0,6,1,1,5,hiragana2.xlsx,hiragana21.xlsx,6,0,180,12,1,179,o,b,c,,c,,,,,,,,,,,,,,,,,,,,,
,,,,,,,,,,,,,,,,,,2019-05-23_19h57.38.185,Probabilistic Learning,3.1.0,60,,,,,c,0,0.53,1,0,6,1,1,5,hiragana2.xlsx,hiragana21.xlsx,6,0,180,26,1,179,V,W,m,,,c,,,,,,,,,,,,,,,,,,,,
,,,,,,,,,,,,,,,,,,2019-05-23_19h57.38.185,Probabilistic Learning,3.1.0,60,,,,,c,1,0.38,1,0,6,1,1,5,hiragana2.xlsx,hiragana21.xlsx,6,0,180,21,1,179,V,W,c,,,c,,,,,,,,,,,,,,,,,,,,
,,,,,,,,,,,,,,,,,,2019-05-23_19h57.38.185,Probabilistic Learning,3.1.0,60,,,,,c,1,0.646,1,0,6,1,1,5,hiragana2.xlsx,hiragana21.xlsx,6,0,180,11,1,179,o,b,c,,c,,,,,,,,,,,,,,,,,,,,,
,,,,,,,,,,,,,,,,,,2019-05-23_19h57.38.185,Probabilistic Learning,3.1.0,60,,,,,c,0,0.497,1,0,6,1,1,5,hiragana2.xlsx,hiragana21.xlsx,6,0,180,4,1,179,J,s,m,m,,,,,,,,,,,,,,,,,,,,,,
,,,,,,,,,,,,,,,,,,2019-05-23_19h57.38.185,Probabilistic Learning,3.1.0,60,,,,,m,0,0.546,1,0,6,1,1,5,hiragana2.xlsx,hiragana21.xlsx,6,0,180,18,1,179,b,o,c,,m,,,,,,,,,,,,,,,,,,,,,
,,,,,,,,,,,,,,,,,,2019-05-23_19h57.38.185,Probabilistic Learning,3.1.0,60,,,,,m,0,0.563,1,0,6,1,1,5,hiragana2.xlsx,hiragana21.xlsx,6,0,180,0,1,179,s,J,c,c,,,,,,,,,,,,,,,,,,,,,,
,,,,,,,,,,,,,,,,,,2019-05-23_19h57.38.185,Probabilistic Learning,3.1.0,60,,,,,m,0,0.396,1,0,6,1,1,5,hiragana2.xlsx,hiragana21.xlsx,6,0,180,1,1,179,s,J,c,c,,,,,,,,,,,,,,,,,,,,,,
,,,,,,,,,,,,,,,,,,2019-05-23_19h57.38.185,Probabilistic Learning,3.1.0,60,,,,,m,0,0.527,1,0,6,1,1,5,hiragana2.xlsx,hiragana21.xlsx,6,0,180,28,1,179,W,V,c,,,m,,,,,,,,,,,,,,,,,,,,
,,,,,,,,,,,,,,,,,,2019-05-23_19h57.38.185,Probabilistic Learning,3.1.0,60,,,,,c,0,0.547,1,0,6,1,1,5,hiragana2.xlsx,hiragana21.xlsx,6,0,180,19,1,179,o,b,m,,c,,,,,,,,,,,,,,,,,,,,,
,,,,,,,,,,,,,,,,,,2019-05-23_19h57.38.185,Probabilistic Learning,3.1.0,60,,,,,m,1,0.513,1,0,6,1,1,5,hiragana2.xlsx,hiragana21.xlsx,6,0,180,14,1,179,b,o,m,,m,,,,,,,,,,,,,,,,,,,,,
,,,,,,,,,,,,,,,,,,2019-05-23_19h57.38.185,Probabilistic Learning,3.1.0,60,,,,,m,0,0.596,1,0,6,1,1,5,hiragana2.xlsx,hiragana21.xlsx,6,0,180,22,1,179,V,W,c,,,c,,,,,,,,,,,,,,,,,,,,
,,,,,,,,,,,,,,,,,,2019-05-23_19h57.38.185,Probabilistic Learning,3.1.0,60,,,,,m,1,0.545,1,0,6,1,1,5,hiragana2.xlsx,hiragana21.xlsx,6,0,180,6,1,179,J,s,m,m,,,,,,,,,,,,,,,,,,,,,,
,,,,,,,,,,,,,,,,,,2019-05-23_19h57.38.185,Probabilistic Learning,3.1.0,60,,,,,m,1,0.595,1,0,6,1,1,5,hiragana2.xlsx,hiragana21.xlsx,6,0,180,15,1,179,b,o,m,,m,,,,,,,,,,,,,,,,,,,,,
,,,,,,,,,,,,,,,,,,2019-05-23_19h57.38.185,Probabilistic Learning,3.1.0,60,,,,,c,1,0.529,1,0,6,1,1,5,hiragana2.xlsx,hiragana21.xlsx,6,0,180,2,1,179,s,J,c,c,,,,,,,,,,,,,,,,,,,,,,
,,,,,,,,,,,,,,,,,,2019-05-23_19h57.38.185,Probabilistic Learning,3.1.0,60,,,,,c,1,0.662,1,0,6,1,1,5,hiragana2.xlsx,hiragana21.xlsx,6,0,180,13,1,179,o,b,c,,c,,,,,,,,,,,,,,,,,,,,,
,,,,,,,,,,,,,,,,,,2019-05-23_19h57.38.185,Probabilistic Learning,3.1.0,60,,,,,c,1,0.429,1,0,6,1,1,5,hiragana2.xlsx,hiragana21.xlsx,6,0,180,3,1,179,s,J,c,c,,,,,,,,,,,,,,,,,,,,,,
,,,,,,,,,,,,,,,,,,2019-05-23_19h57.38.185,Probabilistic Learning,3.1.0,60,,,,,c,1,0.38,1,0,6,1,1,5,hiragana2.xlsx,hiragana21.xlsx,6,0,180,0,1,179,s,J,c,c,,,,,,,,,,,,,,,,,,,,,,
,,,,,,,,,,,,,,,,,,2019-05-23_19h57.38.185,Probabilistic Learning,3.1.0,60,,,,,c,1,0.562,1,0,6,1,1,5,hiragana2.xlsx,hiragana21.xlsx,6,0,180,11,1,179,o,b,c,,c,,,,,,,,,,,,,,,,,,,,,
,,,,,,,,,,,,,,,,,,2019-05-23_19h57.38.185,Probabilistic Learning,3.1.0,60,,,,,m,1,0.429,1,0,6,1,1,5,hiragana2.xlsx,hiragana21.xlsx,6,0,180,6,1,179,J,s,m,m,,,,,,,,,,,,,,,,,,,,,,
,,,,,,,,,,,,,,,,,,2019-05-23_19h57.38.185,Probabilistic Learning,3.1.0,60,,,,,m,1,0.397,1,0,6,1,1,5,hiragana2.xlsx,hiragana21.xlsx,6,0,180,7,1,179,J,s,m,m,,,,,,,,,,,,,,,,,,,,,,
,,,,,,,,,,,,,,,,,,2019-05-23_19h57.38.185,Probabilistic Learning,3.1.0,60,,,,,m,1,0.564,1,0,6,1,1,5,hiragana2.xlsx,hiragana21.xlsx,6,0,180,15,1,179,b,o,m,,m,,,,,,,,,,,,,,,,,,,,,
,,,,,,,,,,,,,,,,,,2019-05-23_19h57.38.185,Probabilistic Learning,3.1.0,60,,,,,c,1,0.446,1,0,6,1,1,5,hiragana2.xlsx,hiragana21.xlsx,6,0,180,13,1,179,o,b,c,,c,,,,,,,,,,,,,,,,,,,,,
,,,,,,,,,,,,,,,,,,2019-05-23_19h57.38.185,Probabilistic Learning,3.1.0,60,,,,,m,0,0.413,1,0,6,1,1,5,hiragana2.xlsx,hiragana21.xlsx,6,0,180,18,1,179,b,o,c,,m,,,,,,,,,,,,,,,,,,,,,
,,,,,,,,,,,,,,,,,,2019-05-23_19h57.38.185,Probabilistic Learning,3.1.0,60,,,,,c,1,0.446,1,0,6,1,1,5,hiragana2.xlsx,hiragana21.xlsx,6,0,180,10,1,179,o,b,c,,c,,,,,,,,,,,,,,,,,,,,,
,,,,,,,,,,,,,,,,,,2019-05-23_19h57.38.185,Probabilistic Learning,3.1.0,60,,,,,m,1,0.396,1,0,6,1,1,5,hiragana2.xlsx,hiragana21.xlsx,6,0,180,16,1,179,b,o,m,,m,,,,,,,,,,,,,,,,,,,,,
,,,,,,,,,,,,,,,,,,2019-05-23_19h57.38.185,Probabilistic Learning,3.1.0,60,,,,,m,0,0.396,1,0,6,1,1,5,hiragana2.xlsx,hiragana21.xlsx,6,0,180,17,1,179,b,o,c,,m,,,,,,,,,,,,,,,,,,,,,
,,,,,,,,,,,,,,,,,,2019-05-23_19h57.38.185,Probabilistic Learning,3.1.0,60,,,,,c,1,0.564,1,0,6,1,1,5,hiragana2.xlsx,hiragana21.xlsx,6,0,180,21,1,179,V,W,c,,,c,,,,,,,,,,,,,,,,,,,,
,,,,,,,,,,,,,,,,,,2019-05-23_19h57.38.185,Probabilistic Learning,3.1.0,60,,,,,c,0,0.415,1,0,6,1,1,5,hiragana2.xlsx,hiragana21.xlsx,6,0,180,26,1,179,V,W,m,,,c,,,,,,,,,,,,,,,,,,,,
,,,,,,,,,,,,,,,,,,2019-05-23_19h57.38.185,Probabilistic Learning,3.1.0,60,,,,,m,1,0.396,1,0,6,1,1,5,hiragana2.xlsx,hiragana21.xlsx,6,0,180,23,1,179,W,V,m,,,m,,,,,,,,,,,,,,,,,,,,
,,,,,,,,,,,,,,,,,,2019-05-23_19h57.38.185,Probabilistic Learning,3.1.0,60,,,,,c,1,0.529,1,0,6,1,1,5,hiragana2.xlsx,hiragana21.xlsx,6,0,180,2,1,179,s,J,c,c,,,,,,,,,,,,,,,,,,,,,,
,,,,,,,,,,,,,,,,,,2019-05-23_19h57.38.185,Probabilistic Learning,3.1.0,60,,,,,c,0,0.614,1,0,6,1,1,5,hiragana2.xlsx,hiragana21.xlsx,6,0,180,27,1,179,V,W,m,,,c,,,,,,,,,,,,,,,,,,,,
,,,,,,,,,,,,,,,,,,2019-05-23_19h57.38.185,Probabilistic Learning,3.1.0,60,,,,,m,1,0.597,1,0,6,1,1,5,hiragana2.xlsx,hiragana21.xlsx,6,0,180,25,1,179,W,V,m,,,m,,,,,,,,,,,,,,,,,,,,
,,,,,,,,,,,,,,,,,,2019-05-23_19h57.38.185,Probabilistic Learning,3.1.0,60,,,,,c,1,0.513,1,0,6,1,1,5,hiragana2.xlsx,hiragana21.xlsx,6,0,180,22,1,179,V,W,c,,,c,,,,,,,,,,,,,,,,,,,,
,,,,,,,,,,,,,,,,,,2019-05-23_19h57.38.185,Probabilistic Learning,3.1.0,60,,,,,m,1,0.629,1,0,6,1,1,5,hiragana2.xlsx,hiragana21.xlsx,6,0,180,24,1,179,W,V,m,,,m,,,,,,,,,,,,,,,,,,,,
,,,,,,,,,,,,,,,,,,2019-05-23_19h57.38.185,Probabilistic Learning,3.1.0,60,,,,,m,1,0.596,1,0,6,1,1,5,hiragana2.xlsx,hiragana21.xlsx,6,0,180,14,1,179,b,o,m,,m,,,,,,,,,,,,,,,,,,,,,
,,,,,,,,,,,,,,,,,,2019-05-23_19h57.38.185,Probabilistic Learning,3.1.0,60,,,,,c,0,0.396,1,0,6,1,1,5,hiragana2.xlsx,hiragana21.xlsx,6,0,180,19,1,179,o,b,m,,c,,,,,,,,,,,,,,,,,,,,,
,,,,,,,,,,,,,,,,,,2019-05-23_19h57.38.185,Probabilistic Learning,3.1.0,60,,,,,c,1,0.412,1,0,6,1,1,5,hiragana2.xlsx,hiragana21.xlsx,6,0,180,12,1,179,o,b,c,,c,,,,,,,,,,,,,,,,,,,,,
,,,,,,,,,,,,,,,,,,2019-05-23_19h57.38.185,Probabilistic Learning,3.1.0,60,,,,,c,0,0.429,1,0,6,1,1,5,hiragana2.xlsx,hiragana21.xlsx,6,0,180,5,1,179,J,s,m,m,,,,,,,,,,,,,,,,,,,,,,
,,,,,,,,,,,,,,,,,,2019-05-23_19h57.38.185,Probabilistic Learning,3.1.0,60,,,,,m,0,0.38,1,0,6,1,1,5,hiragana2.xlsx,hiragana21.xlsx,6,0,180,9,1,179,J,s,c,m,,,,,,,,,,,,,,,,,,,,,,
,,,,,,,,,,,,,,,,,,2019-05-23_19h57.38.185,Probabilistic Learning,3.1.0,60,,,,,c,1,0.379,1,0,6,1,1,5,hiragana2.xlsx,hiragana21.xlsx,6,0,180,20,1,179,V,W,c,,,c,,,,,,,,,,,,,,,,,,,,
,,,,,,,,,,,,,,,,,,2019-05-23_19h57.38.185,Probabilistic Learning,3.1.0,60,,,,,m,0,0.378,1,0,6,1,1,5,hiragana2.xlsx,hiragana21.xlsx,6,0,180,29,1,179,W,V,c,,,m,,,,,,,,,,,,,,,,,,,,
,,,,,,,,,,,,,,,,,,2019-05-23_19h57.38.185,Probabilistic Learning,3.1.0,60,,,,,m,1,0.429,1,0,6,1,1,5,hiragana2.xlsx,hiragana21.xlsx,6,0,180,4,1,179,J,s,m,m,,,,,,,,,,,,,,,,,,,,,,
,,,,,,,,,,,,,,,,,,2019-05-23_19h57.38.185,Probabilistic Learning,3.1.0,60,,,,,m,0,0.329,1,0,6,1,1,5,hiragana2.xlsx,hiragana21.xlsx,6,0,180,1,1,179,s,J,c,c,,,,,,,,,,,,,,,,,,,,,,
,,,,,,,,,,,,,,,,,,2019-05-23_19h57.38.185,Probabilistic Learning,3.1.0,60,,,,,m,0,0.528,1,0,6,1,1,5,hiragana2.xlsx,hiragana21.xlsx,6,0,180,28,1,179,W,V,c,,,m,,,,,,,,,,,,,,,,,,,,
,,,,,,,,,,,,,,,,,,2019-05-23_19h57.38.185,Probabilistic Learning,3.1.0,60,,,,,c,0,0.463,1,0,6,1,1,5,hiragana2.xlsx,hiragana21.xlsx,6,0,180,8,1,179,s,J,m,c,,,,,,,,,,,,,,,,,,,,,,
,,,,,,,,,,,,,,,,,,2019-05-23_19h57.38.185,Probabilistic Learning,3.1.0,60,,,,,m,1,0.398,1,0,6,1,1,5,hiragana2.xlsx,hiragana21.xlsx,6,0,180,4,1,179,J,s,m,m,,,,,,,,,,,,,,,,,,,,,,
,,,,,,,,,,,,,,,,,,2019-05-23_19h57.38.185,Probabilistic Learning,3.1.0,60,,,,,m,1,0.496,1,0,6,1,1,5,hiragana2.xlsx,hiragana21.xlsx,6,0,180,16,1,179,b,o,m,,m,,,,,,,,,,,,,,,,,,,,,
,,,,,,,,,,,,,,,,,,2019-05-23_19h57.38.185,Probabilistic Learning,3.1.0,60,,,,,c,1,0.513,1,0,6,1,1,5,hiragana2.xlsx,hiragana21.xlsx,6,0,180,13,1,179,o,b,c,,c,,,,,,,,,,,,,,,,,,,,,
,,,,,,,,,,,,,,,,,,2019-05-23_19h57.38.185,Probabilistic Learning,3.1.0,60,,,,,c,0,0.481,1,0,6,1,1,5,hiragana2.xlsx,hiragana21.xlsx,6,0,180,8,1,179,s,J,m,c,,,,,,,,,,,,,,,,,,,,,,
,,,,,,,,,,,,,,,,,,2019-05-23_19h57.38.185,Probabilistic Learning,3.1.0,60,,,,,c,1,0.662,1,0,6,1,1,5,hiragana2.xlsx,hiragana21.xlsx,6,0,180,21,1,179,V,W,c,,,c,,,,,,,,,,,,,,,,,,,,
,,,,,,,,,,,,,,,,,,2019-05-23_19h57.38.185,Probabilistic Learning,3.1.0,60,,,,,c,1,0.446,1,0,6,1,1,5,hiragana2.xlsx,hiragana21.xlsx,6,0,180,22,1,179,V,W,c,,,c,,,,,,,,,,,,,,,,,,,,
,,,,,,,,,,,,,,,,,,2019-05-23_19h57.38.185,Probabilistic Learning,3.1.0,60,,,,,c,1,0.429,1,0,6,1,1,5,hiragana2.xlsx,hiragana21.xlsx,6,0,180,12,1,179,o,b,c,,c,,,,,,,,,,,,,,,,,,,,,
,,,,,,,,,,,,,,,,,,2019-05-23_19h57.38.185,Probabilistic Learning,3.1.0,60,,,,,c,1,0.379,1,0,6,1,1,5,hiragana2.xlsx,hiragana21.xlsx,6,0,180,11,1,179,o,b,c,,c,,,,,,,,,,,,,,,,,,,,,
,,,,,,,,,,,,,,,,,,2019-05-23_19h57.38.185,Probabilistic Learning,3.1.0,60,,,,,m,1,0.479,1,0,6,1,1,5,hiragana2.xlsx,hiragana21.xlsx,6,0,180,6,1,179,J,s,m,m,,,,,,,,,,,,,,,,,,,,,,
,,,,,,,,,,,,,,,,,,2019-05-23_19h57.38.185,Probabilistic Learning,3.1.0,60,,,,,c,1,0.429,1,0,6,1,1,5,hiragana2.xlsx,hiragana21.xlsx,,,,,,,,,,,,,space,87.718,space,0.879,m,0.225,2,0,92,5,1,91,W,V,F,E,,,,
,,,,,,,,,,,,,,,,,,2019-05-23_19h57.38.185,Probabilistic Learning,3.1.0,60,,,,,,,,1,0,6,1,1,5,hiragana2.xlsx,hiragana21.xlsx,,,,,,,,,,,,,,,,,m,0.112,2,0,92,35,1,91,J,W,B,F,,m,,
,,,,,,,,,,,,,,,,,,2019-05-23_19h57.38.185,Probabilistic Learning,3.1.0,60,,,,,,,,1,0,6,1,1,5,hiragana2.xlsx,hiragana21.xlsx,,,,,,,,,,,,,,,,,m,0.23,2,0,92,1,1,91,J,s,B,A,,,,
,,,,,,,,,,,,,,,,,,2019-05-23_19h57.38.185,Probabilistic Learning,3.1.0,60,,,,,,,,1,0,6,1,1,5,hiragana2.xlsx,hiragana21.xlsx,,,,,,,,,,,,,,,,,m,0.111,2,0,92,28,1,91,b,J,D,B,,c,,
,,,,,,,,,,,,,,,,,,2019-05-23_19h57.38.185,Probabilistic Learning,3.1.0,60,,,,,,,,1,0,6,1,1,5,hiragana2.xlsx,hiragana21.xlsx,,,,,,,,,,,,,,,,,c,0.297,2,0,92,30,1,91,J,V,B,E,,m,,
,,,,,,,,,,,,,,,,,,2019-05-23_19h57.38.185,Probabilistic Learning,3.1.0,60,,,,,,,,1,0,6,1,1,5,hiragana2.xlsx,hiragana21.xlsx,,,,,,,,,,,,,,,,,m,0.197,2,0,92,18,1,91,s,W,A,F,c,,,
,,,,,,,,,,,,,,,,,,2019-05-23_19h57.38.185,Probabilistic Learning,3.1.0,60,,,,,,,,1,0,6,1,1,5,hiragana2.xlsx,hiragana21.xlsx,,,,,,,,,,,,,,,,,m,0.097,2,0,92,36,1,91,W,J,F,B,,c,,
,,,,,,,,,,,,,,,,,,2019-05-23_19h57.38.185,Probabilistic Learning,3.1.0,60,,,,,,,,1,0,6,1,1,5,hiragana2.xlsx,hiragana21.xlsx,,,,,,,,,,,,,,,,,c,0.13,2,0,92,40,1,91,o,W,c,f,,,,
,,,,,,,,,,,,,,,,,,2019-05-23_19h57.38.185,Probabilistic Learning,3.1.0,60,,,,,,,,1,0,6,1,1,5,hiragana2.xlsx,hiragana21.xlsx,,,,,,,,,,,,,,,,,m,0.214,2,0,92,27,1,91,J,b,B,D,,m,,
,,,,,,,,,,,,,,,,,,2019-05-23_19h57.38.185,Probabilistic Learning,3.1.0,60,,,,,,,,1,0,6,1,1,5,hiragana2.xlsx,hiragana21.xlsx,,,,,,,,,,,,,,,,,m,0.078,2,0,92,33,1,91,V,J,E,B,,c,,
,,,,,,,,,,,,,,,,,,2019-05-23_19h57.38.185,Probabilistic Learning,3.1.0,60,,,,,,,,1,0,6,1,1,5,hiragana2.xlsx,hiragana21.xlsx,,,,,,,,,,,,,,,,,c,0.079,2,0,92,3,1,91,b,o,D,C,,,,
,,,,,,,,,,,,,,,,,,2019-05-23_19h57.38.185,Probabilistic Learning,3.1.0,60,,,,,,,,1,0,6,1,1,5,hiragana2.xlsx,hiragana21.xlsx,,,,,,,,,,,,,,,,,m,0.029,2,0,92,44,1,91,b,W,d,f,,,,
,,,,,,,,,,,,,,,,,,2019-05-23_19h57.38.185,Probabilistic Learning,3.1.0,60,,,,,,,,1,0,6,1,1,5,hiragana2.xlsx,hiragana21.xlsx,,,,,,,,,,,,,,,,,m,0.297,2,0,92,23,1,91,J,o,B,C,,m,,
,,,,,,,,,,,,,,,,,,2019-05-23_19h57.38.185,Probabilistic Learning,3.1.0,60,,,,,,,,1,0,6,1,1,5,hiragana2.xlsx,hiragana21.xlsx,,,,,,,,,,,,,,,,,m,0.196,2,0,92,43,1,91,V,b,e,d,,,,
,,,,,,,,,,,,,,,,,,2019-05-23_19h57.38.185,Probabilistic Learning,3.1.0,60,,,,,,,,1,0,6,1,1,5,hiragana2.xlsx,hiragana21.xlsx,,,,,,,,,,,,,,,,,c,0.212,2,0,92,38,1,91,o,V,C,E,,,,
,,,,,,,,,,,,,,,,,,2019-05-23_19h57.38.185,Probabilistic Learning,3.1.0,60,,,,,,,,1,0,6,1,1,5,hiragana2.xlsx,hiragana21.xlsx,,,,,,,,,,,,,,,,,m,0.147,2,0,92,34,1,91,J,W,B,F,,m,,
,,,,,,,,,,,,,,,,,,2019-05-23_19h57.38.185,Probabilistic Learning,3.1.0,60,,,,,,,,1,0,6,1,1,5,hiragana2.xlsx,hiragana21.xlsx,,,,,,,,,,,,,,,,,m,0.179,2,0,92,12,1,91,b,s,D,A,m,,,
,,,,,,,,,,,,,,,,,,2019-05-23_19h57.38.185,Probabilistic Learning,3.1.0,60,,,,,,,,1,0,6,1,1,5,hiragana2.xlsx,hiragana21.xlsx,,,,,,,,,,,,,,,,,m,0.048,2,0,92,39,1,91,V,o,e,c,,,,
,,,,,,,,,,,,,,,,,,2019-05-23_19h57.38.185,Probabilistic Learning,3.1.0,60,,,,,,,,1,0,6,1,1,5,hiragana2.xlsx,hiragana21.xlsx,,,,,,,,,,,,,,,,,c,0.162,2,0,92,7,1,91,s,o,A,C,c,,,
,,,,,,,,,,,,,,,,,,2019-05-23_19h57.38.185,Probabilistic Learning,3.1.0,60,,,,,,,,1,0,6,1,1,5,hiragana2.xlsx,hiragana21.xlsx,,,,,,,,,,,,,,,,,m,0.214,2,0,92,32,1,91,V,J,E,B,,c,,
,,,,,,,,,,,,,,,,,,2019-05-23_19h57.38.185,Probabilistic Learning,3.1.0,60,,,,,,,,1,0,6,1,1,5,hiragana2.xlsx,hiragana21.xlsx,,,,,,,,,,,,,,,,,c,0.081,2,0,92,25,1,91,o,J,C,B,,c,,
,,,,,,,,,,,,,,,,,,2019-05-23_19h57.38.185,Probabilistic Learning,3.1.0,60,,,,,,,,1,0,6,1,1,5,hiragana2.xlsx,hiragana21.xlsx,,,,,,,,,,,,,,,,,m,0.229,2,0,92,19,1,91,s,W,A,F,c,,,
,,,,,,,,,,,,,,,,,,2019-05-23_19h57.38.185,Probabilistic Learning,3.1.0,60,,,,,,,,1,0,6,1,1,5,hiragana2.xlsx,hiragana21.xlsx,,,,,,,,,,,,,,,,,c,0.277,2,0,92,42,1,91,b,V,d,e,,,,
,,,,,,,,,,,,,,,,,,2019-05-23_19h57.38.185,Probabilistic Learning,3.1.0,60,,,,,,,,1,0,6,1,1,5,hiragana2.xlsx,hiragana21.xlsx,,,,,,,,,,,,,,,,,m,0.196,2,0,92,41,1,91,W,o,f,c,,,,
,,,,,,,,,,,,,,,,,,2019-05-23_19h57.38.185,Probabilistic Learning,3.1.0,60,,,,,,,,1,0,6,1,1,5,hiragana2.xlsx,hiragana21.xlsx,,,,,,,,,,,,,,,,,c,0.161,2,0,92,26,1,91,J,b,B,D,,m,,
,,,,,,,,,,,,,,,,,,2019-05-23_19h57.38.185,Probabilistic Learning,3.1.0,60,,,,,,,,1,0,6,1,1,5,hiragana2.xlsx,hiragana21.xlsx,,,,,,,,,,,,,,,,,m,0.212,2,0,92,13,1,91,b,s,D,A,m,,,
,,,,,,,,,,,,,,,,,,2019-05-23_19h57.38.185,Probabilistic Learning,3.1.0,60,,,,,,,,1,0,6,1,1,5,hiragana2.xlsx,hiragana21.xlsx,,,,,,,,,,,,,,,,,m,0.231,2,0,92,15,1,91,s,V,A,E,c,,,
,,,,,,,,,,,,,,,,,,2019-05-23_19h57.38.185,Probabilistic Learning,3.1.0,60,,,,,,,,1,0,6,1,1,5,hiragana2.xlsx,hiragana21.xlsx,,,,,,,,,,,,,,,,,m,0.261,2,0,92,0,1,91,s,J,A,B,,,,
,,,,,,,,,,,,,,,,,,2019-05-23_19h57.38.185,Probabilistic Learning,3.1.0,60,,,,,,,,1,0,6,1,1,5,hiragana2.xlsx,hiragana21.xlsx,,,,,,,,,,,,,,,,,c,0.214,2,0,92,24,1,91,o,J,C,B,,c,,
,,,,,,,,,,,,,,,,,,2019-05-23_19h57.38.185,Probabilistic Learning,3.1.0,60,,,,,,,,1,0,6,1,1,5,hiragana2.xlsx,hiragana21.xlsx,,,,,,,,,,,,,,,,,m,0.113,2,0,92,31,1,91,J,V,B,E,,m,,
,,,,,,,,,,,,,,,,,,2019-05-23_19h57.38.185,Probabilistic Learning,3.1.0,60,,,,,,,,1,0,6,1,1,5,hiragana2.xlsx,hiragana21.xlsx,,,,,,,,,,,,,,,,,m,0.195,2,0,92,21,1,91,W,s,F,A,m,,,
,,,,,,,,,,,,,,,,,,2019-05-23_19h57.38.185,Probabilistic Learning,3.1.0,60,,,,,,,,1,0,6,1,1,5,hiragana2.xlsx,hiragana21.xlsx,,,,,,,,,,,,,,,,,c,0.248,2,0,92,6,1,91,s,o,A,C,c,,,
,,,,,,,,,,,,,,,,,,2019-05-23_19h57.38.185,Probabilistic Learning,3.1.0,60,,,,,,,,1,0,6,1,1,5,hiragana2.xlsx,hiragana21.xlsx,,,,,,,,,,,,,,,,,m,0.23,2,0,92,11,1,91,s,b,A,D,c,,,
,,,,,,,,,,,,,,,,,,2019-05-23_19h57.38.185,Probabilistic Learning,3.1.0,60,,,,,,,,1,0,6,1,1,5,hiragana2.xlsx,hiragana21.xlsx,,,,,,,,,,,,,,,,,m,0.029,2,0,92,20,1,91,W,s,F,A,m,,,
,,,,,,,,,,,,,,,,,,2019-05-23_19h57.38.185,Probabilistic Learning,3.1.0,60,,,,,,,,1,0,6,1,1,5,hiragana2.xlsx,hiragana21.xlsx,,,,,,,,,,,,,,,,,m,0.245,2,0,92,29,1,91,b,J,D,B,,c,,
,,,,,,,,,,,,,,,,,,2019-05-23_19h57.38.185,Probabilistic Learning,3.1.0,60,,,,,,,,1,0,6,1,1,5,hiragana2.xlsx,hiragana21.xlsx,,,,,,,,,,,,,,,,,m,0.162,2,0,92,9,1,91,o,s,C,A,m,,,
,,,,,,,,,,,,,,,,,,2019-05-23_19h57.38.185,Probabilistic Learning,3.1.0,60,,,,,,,,1,0,6,1,1,5,hiragana2.xlsx,hiragana21.xlsx,,,,,,,,,,,,,,,,,c,0.23,2,0,92,4,1,91,V,W,E,F,,,,
,,,,,,,,,,,,,,,,,,2019-05-23_19h57.38.185,Probabilistic Learning,3.1.0,60,,,,,,,,1,0,6,1,1,5,hiragana2.xlsx,hiragana21.xlsx,,,,,,,,,,,,,,,,,m,0.111,2,0,92,8,1,91,o,s,C,A,m,,,
,,,,,,,,,,,,,,,,,,2019-05-23_19h57.38.185,Probabilistic Learning,3.1.0,60,,,,,,,,1,0,6,1,1,5,hiragana2.xlsx,hiragana21.xlsx,,,,,,,,,,,,,,,,,m,0.264,2,0,92,17,1,91,V,s,E,A,m,,,
,,,,,,,,,,,,,,,,,,2019-05-23_19h57.38.185,Probabilistic Learning,3.1.0,60,,,,,,,,1,0,6,1,1,5,hiragana2.xlsx,hiragana21.xlsx,,,,,,,,,,,,,,,,,m,0.096,2,0,92,37,1,91,W,J,F,B,,c,,
,,,,,,,,,,,,,,,,,,2019-05-23_19h57.38.185,Probabilistic Learning,3.1.0,60,,,,,,,,1,0,6,1,1,5,hiragana2.xlsx,hiragana21.xlsx,,,,,,,,,,,,,,,,,c,0.178,2,0,92,2,1,91,o,b,C,D,,,,
,,,,,,,,,,,,,,,,,,2019-05-23_19h57.38.185,Probabilistic Learning,3.1.0,60,,,,,,,,1,0,6,1,1,5,hiragana2.xlsx,hiragana21.xlsx,,,,,,,,,,,,,,,,,m,0.097,2,0,92,45,1,91,W,b,f,d,,,,
,,,,,,,,,,,,,,,,,,2019-05-23_19h57.38.185,Probabilistic Learning,3.1.0,60,,,,,,,,1,0,6,1,1,5,hiragana2.xlsx,hiragana21.xlsx,,,,,,,,,,,,,,,,,m,0.281,2,0,92,16,1,91,V,s,E,A,m,,,
,,,,,,,,,,,,,,,,,,2019-05-23_19h57.38.185,Probabilistic Learning,3.1.0,60,,,,,,,,1,0,6,1,1,5,hiragana2.xlsx,hiragana21.xlsx,,,,,,,,,,,,,,,,,c,0.313,2,0,92,22,1,91,J,o,B,C,,m,,
,,,,,,,,,,,,,,,,,,2019-05-23_19h57.38.185,Probabilistic Learning,3.1.0,60,,,,,,,,1,0,6,1,1,5,hiragana2.xlsx,hiragana21.xlsx,,,,,,,,,,,,,,,,,m,0.004,2,0,92,10,1,91,s,b,A,D,c,,,
,,,,,,,,,,,,,,,,,,2019-05-23_19h57.38.185,Probabilistic Learning,3.1.0,60,,,,,,,,1,0,6,1,1,5,hiragana2.xlsx,hiragana21.xlsx,,,,,,,,,,,,,,,,,m,0.246,2,0,92,14,1,91,s,V,A,E,c,,,
,,,,,,,,,,,,,,,,,,2019-05-23_19h57.38.185,Probabilistic Learning,3.1.0,60,,,,,,,,1,0,6,1,1,5,hiragana2.xlsx,hiragana21.xlsx,,,,,,,,,,,,,,,,,m,0.228,2,0,92,21,1,91,W,s,F,A,m,,,
,,,,,,,,,,,,,,,,,,2019-05-23_19h57.38.185,Probabilistic Learning,3.1.0,60,,,,,,,,1,0,6,1,1,5,hiragana2.xlsx,hiragana21.xlsx,,,,,,,,,,,,,,,,,m,0.242,2,0,92,36,1,91,W,J,F,B,,c,,
,,,,,,,,,,,,,,,,,,2019-05-23_19h57.38.185,Probabilistic Learning,3.1.0,60,,,,,,,,1,0,6,1,1,5,hiragana2.xlsx,hiragana21.xlsx,,,,,,,,,,,,,,,,,c,0.196,2,0,92,40,1,91,o,W,c,f,,,,
,,,,,,,,,,,,,,,,,,2019-05-23_19h57.38.185,Probabilistic Learning,3.1.0,60,,,,,,,,1,0,6,1,1,5,hiragana2.xlsx,hiragana21.xlsx,,,,,,,,,,,,,,,,,m,0.009,2,0,92,35,1,91,J,W,B,F,,m,,
,,,,,,,,,,,,,,,,,,2019-05-23_19h57.38.185,Probabilistic Learning,3.1.0,60,,,,,,,,1,0,6,1,1,5,hiragana2.xlsx,hiragana21.xlsx,,,,,,,,,,,,,,,,,m,0.231,2,0,92,39,1,91,V,o,e,c,,,,
,,,,,,,,,,,,,,,,,,2019-05-23_19h57.38.185,Probabilistic Learning,3.1.0,60,,,,,,,,1,0,6,1,1,5,hiragana2.xlsx,hiragana21.xlsx,,,,,,,,,,,,,,,,,c,0.279,2,0,92,9,1,91,o,s,C,A,m,,,
,,,,,,,,,,,,,,,,,,2019-05-23_19h57.38.185,Probabilistic Learning,3.1.0,60,,,,,,,,1,0,6,1,1,5,hiragana2.xlsx,hiragana21.xlsx,,,,,,,,,,,,,,,,,m,0.179,2,0,92,12,1,91,b,s,D,A,m,,,
,,,,,,,,,,,,,,,,,,2019-05-23_19h57.38.185,Probabilistic Learning,3.1.0,60,,,,,,,,1,0,6,1,1,5,hiragana2.xlsx,hiragana21.xlsx,,,,,,,,,,,,,,,,,m,0.18,2,0,92,43,1,91,V,b,e,d,,,,
,,,,,,,,,,,,,,,,,,2019-05-23_19h57.38.185,Probabilistic Learning,3.1.0,60,,,,,,,,1,0,6,1,1,5,hiragana2.xlsx,hiragana21.xlsx,,,,,,,,,,,,,,,,,m,0.198,2,0,92,25,1,91,o,J,C,B,,c,,
,,,,,,,,,,,,,,,,,,2019-05-23_19h57.38.185,Probabilistic Learning,3.1.0,60,,,,,,,,1,0,6,1,1,5,hiragana2.xlsx,hiragana21.xlsx,,,,,,,,,,,,,,,,,c,0.279,2,0,92,33,1,91,V,J,E,B,,c,,
,,,,,,,,,,,,,,,,,,2019-05-23_19h57.38.185,Probabilistic Learning,3.1.0,60,,,,,,,,1,0,6,1,1,5,hiragana2.xlsx,hiragana21.xlsx,,,,,,,,,,,,,,,,,m,0.196,2,0,92,45,1,91,W,b,f,d,,,,
,,,,,,,,,,,,,,,,,,2019-05-23_19h57.38.185,Probabilistic Learning,3.1.0,60,,,,,,,,1,0,6,1,1,5,hiragana2.xlsx,hiragana21.xlsx,,,,,,,,,,,,,,,,,m,0.23,2,0,92,2,1,91,o,b,C,D,,,,
,,,,,,,,,,,,,,,,,,2019-05-23_19h57.38.185,Probabilistic Learning,3.1.0,60,,,,,,,,1,0,6,1,1,5,hiragana2.xlsx,hiragana21.xlsx,,,,,,,,,,,,,,,,,c,0.278,2,0,92,17,1,91,V,s,E,A,m,,,
,,,,,,,,,,,,,,,,,,2019-05-23_19h57.38.185,Probabilistic Learning,3.1.0,60,,,,,,,,1,0,6,1,1,5,hiragana2.xlsx,hiragana21.xlsx,,,,,,,,,,,,,,,,,c,0.13,2,0,92,44,1,91,b,W,d,f,,,,
,,,,,,,,,,,,,,,,,,2019-05-23_19h57.38.185,Probabilistic Learning,3.1.0,60,,,,,,,,1,0,6,1,1,5,hiragana2.xlsx,hiragana21.xlsx,,,,,,,,,,,,,,,,,m,0.062,2,0,92,0,1,91,s,J,A,B,,,,
,,,,,,,,,,,,,,,,,,2019-05-23_19h57.38.185,Probabilistic Learning,3.1.0,60,,,,,,,,1,0,6,1,1,5,hiragana2.xlsx,hiragana21.xlsx,,,,,,,,,,,,,,,,,m,0.197,2,0,92,20,1,91,W,s,F,A,m,,,
,,,,,,,,,,,,,,,,,,2019-05-23_19h57.38.185,Probabilistic Learning,3.1.0,60,,,,,,,,1,0,6,1,1,5,hiragana2.xlsx,hiragana21.xlsx,,,,,,,,,,,,,,,,,c,0.029,2,0,92,7,1,91,s,o,A,C,c,,,
,,,,,,,,,,,,,,,,,,2019-05-23_19h57.38.185,Probabilistic Learning,3.1.0,60,,,,,,,,1,0,6,1,1,5,hiragana2.xlsx,hiragana21.xlsx,,,,,,,,,,,,,,,,,c,0.146,2,0,92,27,1,91,J,b,B,D,,m,,
,,,,,,,,,,,,,,,,,,2019-05-23_19h57.38.185,Probabilistic Learning,3.1.0,60,,,,,,,,1,0,6,1,1,5,hiragana2.xlsx,hiragana21.xlsx,,,,,,,,,,,,,,,,,m,0.247,2,0,92,15,1,91,s,V,A,E,c,,,
,,,,,,,,,,,,,,,,,,2019-05-23_19h57.38.185,Probabilistic Learning,3.1.0,60,,,,,,,,1,0,6,1,1,5,hiragana2.xlsx,hiragana21.xlsx,,,,,,,,,,,,,,,,,m,0.297,2,0,92,1,1,91,J,s,B,A,,,,
,,,,,,,,,,,,,,,,,,2019-05-23_19h57.38.185,Probabilistic Learning,3.1.0,60,,,,,,,,1,0,6,1,1,5,hiragana2.xlsx,hiragana21.xlsx,,,,,,,,,,,,,,,,,m,0.196,2,0,92,8,1,91,o,s,C,A,m,,,
,,,,,,,,,,,,,,,,,,2019-05-23_19h57.38.185,Probabilistic Learning,3.1.0,60,,,,,,,,1,0,6,1,1,5,hiragana2.xlsx,hiragana21.xlsx,,,,,,,,,,,,,,,,,m,0.112,2,0,92,37,1,91,W,J,F,B,,c,,
,,,,,,,,,,,,,,,,,,2019-05-23_19h57.38.185,Probabilistic Learning,3.1.0,60,,,,,,,,1,0,6,1,1,5,hiragana2.xlsx,hiragana21.xlsx,,,,,,,,,,,,,,,,,m,0.346,2,0,92,3,1,91,b,o,D,C,,,,
,,,,,,,,,,,,,,,,,,2019-05-23_19h57.38.185,Probabilistic Learning,3.1.0,60,,,,,,,,1,0,6,1,1,5,hiragana2.xlsx,hiragana21.xlsx,,,,,,,,,,,,,,,,,m,0.229,2,0,92,30,1,91,J,V,B,E,,m,,
,,,,,,,,,,,,,,,,,,2019-05-23_19h57.38.185,Probabilistic Learning,3.1.0,60,,,,,,,,1,0,6,1,1,5,hiragana2.xlsx,hiragana21.xlsx,,,,,,,,,,,,,,,,,m,0.246,2,0,92,41,1,91,W,o,f,c,,,,
,,,,,,,,,,,,,,,,,,2019-05-23_19h57.38.185,Probabilistic Learning,3.1.0,60,,,,,,,,1,0,6,1,1,5,hiragana2.xlsx,hiragana21.xlsx,,,,,,,,,,,,,,,,,c,0.228,2,0,92,10,1,91,s,b,A,D,c,,,
,,,,,,,,,,,,,,,,,,2019-05-23_19h57.38.185,Probabilistic Learning,3.1.0,60,,,,,,,,1,0,6,1,1,5,hiragana2.xlsx,hiragana21.xlsx,,,,,,,,,,,,,,,,,m,0.029,2,0,92,13,1,91,b,s,D,A,m,,,
,,,,,,,,,,,,,,,,,,2019-05-23_19h57.38.185,Probabilistic Learning,3.1.0,60,,,,,,,,1,0,6,1,1,5,hiragana2.xlsx,hiragana21.xlsx,,,,,,,,,,,,,,,,,m,0.214,2,0,92,6,1,91,s,o,A,C,c,,,
,,,,,,,,,,,,,,,,,,2019-05-23_19h57.38.185,Probabilistic Learning,3.1.0,60,,,,,,,,1,0,6,1,1,5,hiragana2.xlsx,hiragana21.xlsx,,,,,,,,,,,,,,,,,m,0.212,2,0,92,28,1,91,b,J,D,B,,c,,
,,,,,,,,,,,,,,,,,,2019-05-23_19h57.38.185,Probabilistic Learning,3.1.0,60,,,,,,,,1,0,6,1,1,5,hiragana2.xlsx,hiragana21.xlsx,,,,,,,,,,,,,,,,,c,0.078,2,0,92,38,1,91,o,V,C,E,,,,
,,,,,,,,,,,,,,,,,,2019-05-23_19h57.38.185,Probabilistic Learning,3.1.0,60,,,,,,,,1,0,6,1,1,5,hiragana2.xlsx,hiragana21.xlsx,,,,,,,,,,,,,,,,,c,0.03,2,0,92,11,1,91,s,b,A,D,c,,,
,,,,,,,,,,,,,,,,,,2019-05-23_19h57.38.185,Probabilistic Learning,3.1.0,60,,,,,,,,1,0,6,1,1,5,hiragana2.xlsx,hiragana21.xlsx,,,,,,,,,,,,,,,,,m,0.246,2,0,92,34,1,91,J,W,B,F,,m,,
,,,,,,,,,,,,,,,,,,2019-05-23_19h57.38.185,Probabilistic Learning,3.1.0,60,,,,,,,,1,0,6,1,1,5,hiragana2.xlsx,hiragana21.xlsx,,,,,,,,,,,,,,,,,c,0.263,2,0,92,22,1,91,J,o,B,C,,m,,
,,,,,,,,,,,,,,,,,,2019-05-23_19h57.38.185,Probabilistic Learning,3.1.0,60,,,,,,,,1,0,6,1,1,5,hiragana2.xlsx,hiragana21.xlsx,,,,,,,,,,,,,,,,,m,0.214,2,0,92,5,1,91,W,V,F,E,,,,
,,,,,,,,,,,,,,,,,,2019-05-23_19h57.38.185,Probabilistic Learning,3.1.0,60,,,,,,,,1,0,6,1,1,5,hiragana2.xlsx,hiragana21.xlsx,,,,,,,,,,,,,,,,,m,0.262,2,0,92,4,1,91,V,W,E,F,,,,
,,,,,,,,,,,,,,,,,,2019-05-23_19h57.38.185,Probabilistic Learning,3.1.0,60,,,,,,,,1,0,6,1,1,5,hiragana2.xlsx,hiragana21.xlsx,,,,,,,,,,,,,,,,,c,0.229,2,0,92,32,1,91,V,J,E,B,,c,,
,,,,,,,,,,,,,,,,,,2019-05-23_19h57.38.185,Probabilistic Learning,3.1.0,60,,,,,,,,1,0,6,1,1,5,hiragana2.xlsx,hiragana21.xlsx,,,,,,,,,,,,,,,,,m,0.196,2,0,92,23,1,91,J,o,B,C,,m,,
,,,,,,,,,,,,,,,,,,2019-05-23_19h57.38.185,Probabilistic Learning,3.1.0,60,,,,,,,,1,0,6,1,1,5,hiragana2.xlsx,hiragana21.xlsx,,,,,,,,,,,,,,,,,m,0.229,2,0,92,16,1,91,V,s,E,A,m,,,
,,,,,,,,,,,,,,,,,,2019-05-23_19h57.38.185,Probabilistic Learning,3.1.0,60,,,,,,,,1,0,6,1,1,5,hiragana2.xlsx,hiragana21.xlsx,,,,,,,,,,,,,,,,,m,0.179,2,0,92,14,1,91,s,V,A,E,c,,,
,,,,,,,,,,,,,,,,,,2019-05-23_19h57.38.185,Probabilistic Learning,3.1.0,60,,,,,,,,1,0,6,1,1,5,hiragana2.xlsx,hiragana21.xlsx,,,,,,,,,,,,,,,,,c,0.23,2,0,92,18,1,91,s,W,A,F,c,,,
,,,,,,,,,,,,,,,,,,2019-05-23_19h57.38.185,Probabilistic Learning,3.1.0,60,,,,,,,,1,0,6,1,1,5,hiragana2.xlsx,hiragana21.xlsx,,,,,,,,,,,,,,,,,m,0.064,2,0,92,42,1,91,b,V,d,e,,,,
,,,,,,,,,,,,,,,,,,2019-05-23_19h57.38.185,Probabilistic Learning,3.1.0,60,,,,,,,,1,0,6,1,1,5,hiragana2.xlsx,hiragana21.xlsx,,,,,,,,,,,,,,,,,m,0.246,2,0,92,19,1,91,s,W,A,F,c,,,
,,,,,,,,,,,,,,,,,,2019-05-23_19h57.38.185,Probabilistic Learning,3.1.0,60,,,,,,,,1,0,6,1,1,5,hiragana2.xlsx,hiragana21.xlsx,,,,,,,,,,,,,,,,,c,0.063,2,0,92,24,1,91,o,J,C,B,,c,,
,,,,,,,,,,,,,,,,,,2019-05-23_19h57.38.185,Probabilistic Learning,3.1.0,60,,,,,,,,1,0,6,1,1,5,hiragana2.xlsx,hiragana21.xlsx,,,,,,,,,,,,,,,,,m,0.163,2,0,92,26,1,91,J,b,B,D,,m,,
,,,,,,,,,,,,,,,,,,2019-05-23_19h57.38.185,Probabilistic Learning,3.1.0,60,,,,,,,,1,0,6,1,1,5,hiragana2.xlsx,hiragana21.xlsx,,,,,,,,,,,,,,,,,c,0.212,2,0,92,29,1,91,b,J,D,B,,c,,
,,,,,,,,,,,,,,,,,,2019-05-23_19h57.38.185,Probabilistic Learning,3.1.0,60,,,,,,,,1,0,6,1,1,5,hiragana2.xlsx,hiragana21.xlsx,,,,,,,,,,,,,,,,,c,0.263,2,0,92,31,1,91,J,V,B,E,,m,,
,,,,,,,,,,,,,,,,,,2019-05-23_19h57.38.185,Probabilistic Learning,3.1.0,60,,,,,,,,1,0,6,1,1,5,hiragana2.xlsx,hiragana21.xlsx,,,,,,,,,,,,,,,,,,,,,,,,,,,,,,,space,2.263
,,,,,,,,,,,,,,,,,,2019-05-23_19h57.38.185,Probabilistic Learning,3.1.0,60,,,space,95.999,c,1,0.459,1,0,6,4,1,5,hiragana5.xlsx,hiragana51.xlsx,6,0,180,12,1,179,h,G,c,,c,,,,,,,,,,,,,,,,,,,,,
,,,,,,,,,,,,,,,,,,2019-05-23_19h57.38.185,Probabilistic Learning,3.1.0,60,,,,,m,1,0.427,1,0,6,4,1,5,hiragana5.xlsx,hiragana51.xlsx,6,0,180,23,1,179,S,j,m,,,m,,,,,,,,,,,,,,,,,,,,
,,,,,,,,,,,,,,,,,,2019-05-23_19h57.38.185,Probabilistic Learning,3.1.0,60,,,,,m,0,0.377,1,0,6,4,1,5,hiragana5.xlsx,hiragana51.xlsx,6,0,180,9,1,179,B,Q,c,m,,,,,,,,,,,,,,,,,,,,,,
,,,,,,,,,,,,,,,,,,2019-05-23_19h57.38.185,Probabilistic Learning,3.1.0,60,,,,,c,1,0.279,1,0,6,4,1,5,hiragana5.xlsx,hiragana51.xlsx,6,0,180,29,1,179,S,j,c,,,m,,,,,,,,,,,,,,,,,,,,
,,,,,,,,,,,,,,,,,,2019-05-23_19h57.38.185,Probabilistic Learning,3.1.0,60,,,,,m,0,0.346,1,0,6,4,1,5,hiragana5.xlsx,hiragana51.xlsx,6,0,180,2,1,179,Q,B,c,c,,,,,,,,,,,,,,,,,,,,,,
,,,,,,,,,,,,,,,,,,2019-05-23_19h57.38.185,Probabilistic Learning,3.1.0,60,,,,,c,1,0.446,1,0,6,4,1,5,hiragana5.xlsx,hiragana51.xlsx,6,0,180,13,1,179,h,G,c,,c,,,,,,,,,,,,,,,,,,,,,
,,,,,,,,,,,,,,,,,,2019-05-23_19h57.38.185,Probabilistic Learning,3.1.0,60,,,,,m,1,0.38,1,0,6,4,1,5,hiragana5.xlsx,hiragana51.xlsx,6,0,180,7,1,179,B,Q,m,m,,,,,,,,,,,,,,,,,,,,,,
,,,,,,,,,,,,,,,,,,2019-05-23_19h57.38.185,Probabilistic Learning,3.1.0,60,,,,,c,1,0.364,1,0,6,4,1,5,hiragana5.xlsx,hiragana51.xlsx,6,0,180,1,1,179,Q,B,c,c,,,,,,,,,,,,,,,,,,,,,,
,,,,,,,,,,,,,,,,,,2019-05-23_19h57.38.185,Probabilistic Learning,3.1.0,60,,,,,m,0,0.361,1,0,6,4,1,5,hiragana5.xlsx,hiragana51.xlsx,6,0,180,10,1,179,h,G,c,,c,,,,,,,,,,,,,,,,,,,,,
,,,,,,,,,,,,,,,,,,2019-05-23_19h57.38.185,Probabilistic Learning,3.1.0,60,,,,,m,0,0.378,1,0,6,4,1,5,hiragana5.xlsx,hiragana51.xlsx,6,0,180,28,1,179,S,j,c,,,m,,,,,,,,,,,,,,,,,,,,
,,,,,,,,,,,,,,,,,,2019-05-23_19h57.38.185,Probabilistic Learning,3.1.0,60,,,,,c,0,0.395,1,0,6,4,1,5,hiragana5.xlsx,hiragana51.xlsx,6,0,180,26,1,179,j,S,m,,,c,,,,,,,,,,,,,,,,,,,,
,,,,,,,,,,,,,,,,,,2019-05-23_19h57.38.185,Probabilistic Learning,3.1.0,60,,,,,m,1,0.363,1,0,6,4,1,5,hiragana5.xlsx,hiragana51.xlsx,6,0,180,25,1,179,S,j,m,,,m,,,,,,,,,,,,,,,,,,,,
,,,,,,,,,,,,,,,,,,2019-05-23_19h57.38.185,Probabilistic Learning,3.1.0,60,,,,,m,1,0.379,1,0,6,4,1,5,hiragana5.xlsx,hiragana51.xlsx,6,0,180,5,1,179,B,Q,m,m,,,,,,,,,,,,,,,,,,,,,,
,,,,,,,,,,,,,,,,,,2019-05-23_19h57.38.185,Probabilistic Learning,3.1.0,60,,,,,c,1,0.412,1,0,6,4,1,5,hiragana5.xlsx,hiragana51.xlsx,6,0,180,3,1,179,Q,B,c,c,,,,,,,,,,,,,,,,,,,,,,
,,,,,,,,,,,,,,,,,,2019-05-23_19h57.38.185,Probabilistic Learning,3.1.0,60,,,,,m,1,0.363,1,0,6,4,1,5,hiragana5.xlsx,hiragana51.xlsx,6,0,180,6,1,179,B,Q,m,m,,,,,,,,,,,,,,,,,,,,,,
,,,,,,,,,,,,,,,,,,2019-05-23_19h57.38.185,Probabilistic Learning,3.1.0,60,,,,,m,0,0.397,1,0,6,4,1,5,hiragana5.xlsx,hiragana51.xlsx,6,0,180,17,1,179,G,h,c,,m,,,,,,,,,,,,,,,,,,,,,
,,,,,,,,,,,,,,,,,,2019-05-23_19h57.38.185,Probabilistic Learning,3.1.0,60,,,,,m,0,0.364,1,0,6,4,1,5,hiragana5.xlsx,hiragana51.xlsx,6,0,180,18,1,179,G,h,c,,m,,,,,,,,,,,,,,,,,,,,,
,,,,,,,,,,,,,,,,,,2019-05-23_19h57.38.185,Probabilistic Learning,3.1.0,60,,,,,m,1,0.412,1,0,6,4,1,5,hiragana5.xlsx,hiragana51.xlsx,6,0,180,4,1,179,B,Q,m,m,,,,,,,,,,,,,,,,,,,,,,
,,,,,,,,,,,,,,,,,,2019-05-23_19h57.38.185,Probabilistic Learning,3.1.0,60,,,,,m,1,0.362,1,0,6,4,1,5,hiragana5.xlsx,hiragana51.xlsx,6,0,180,14,1,179,G,h,m,,m,,,,,,,,,,,,,,,,,,,,,
,,,,,,,,,,,,,,,,,,2019-05-23_19h57.38.185,Probabilistic Learning,3.1.0,60,,,,,c,1,0.412,1,0,6,4,1,5,hiragana5.xlsx,hiragana51.xlsx,6,0,180,20,1,179,j,S,c,,,c,,,,,,,,,,,,,,,,,,,,
,,,,,,,,,,,,,,,,,,2019-05-23_19h57.38.185,Probabilistic Learning,3.1.0,60,,,,,c,0,0.429,1,0,6,4,1,5,hiragana5.xlsx,hiragana51.xlsx,6,0,180,19,1,179,h,G,m,,c,,,,,,,,,,,,,,,,,,,,,
,,,,,,,,,,,,,,,,,,2019-05-23_19h57.38.185,Probabilistic Learning,3.1.0,60,,,,,c,1,0.413,1,0,6,4,1,5,hiragana5.xlsx,hiragana51.xlsx,6,0,180,0,1,179,Q,B,c,c,,,,,,,,,,,,,,,,,,,,,,
,,,,,,,,,,,,,,,,,,2019-05-23_19h57.38.185,Probabilistic Learning,3.1.0,60,,,,,m,1,0.363,1,0,6,4,1,5,hiragana5.xlsx,hiragana51.xlsx,6,0,180,16,1,179,G,h,m,,m,,,,,,,,,,,,,,,,,,,,,
,,,,,,,,,,,,,,,,,,2019-05-23_19h57.38.185,Probabilistic Learning,3.1.0,60,,,,,m,0,0.414,1,0,6,4,1,5,hiragana5.xlsx,hiragana51.xlsx,6,0,180,21,1,179,j,S,c,,,c,,,,,,,,,,,,,,,,,,,,
,,,,,,,,,,,,,,,,,,2019-05-23_19h57.38.185,Probabilistic Learning,3.1.0,60,,,,,c,0,0.38,1,0,6,4,1,5,hiragana5.xlsx,hiragana51.xlsx,6,0,180,27,1,179,j,S,m,,,c,,,,,,,,,,,,,,,,,,,,
,,,,,,,,,,,,,,,,,,2019-05-23_19h57.38.185,Probabilistic Learning,3.1.0,60,,,,,c,0,0.447,1,0,6,4,1,5,hiragana5.xlsx,hiragana51.xlsx,6,0,180,8,1,179,Q,B,m,c,,,,,,,,,,,,,,,,,,,,,,
,,,,,,,,,,,,,,,,,,2019-05-23_19h57.38.185,Probabilistic Learning,3.1.0,60,,,,,m,1,0.365,1,0,6,4,1,5,hiragana5.xlsx,hiragana51.xlsx,6,0,180,15,1,179,G,h,m,,m,,,,,,,,,,,,,,,,,,,,,
,,,,,,,,,,,,,,,,,,2019-05-23_19h57.38.185,Probabilistic Learning,3.1.0,60,,,,,c,1,0.331,1,0,6,4,1,5,hiragana5.xlsx,hiragana51.xlsx,6,0,180,11,1,179,h,G,c,,c,,,,,,,,,,,,,,,,,,,,,
,,,,,,,,,,,,,,,,,,2019-05-23_19h57.38.185,Probabilistic Learning,3.1.0,60,,,,,m,1,0.48,1,0,6,4,1,5,hiragana5.xlsx,hiragana51.xlsx,6,0,180,24,1,179,S,j,m,,,m,,,,,,,,,,,,,,,,,,,,
,,,,,,,,,,,,,,,,,,2019-05-23_19h57.38.185,Probabilistic Learning,3.1.0,60,,,,,c,1,0.365,1,0,6,4,1,5,hiragana5.xlsx,hiragana51.xlsx,6,0,180,22,1,179,j,S,c,,,c,,,,,,,,,,,,,,,,,,,,
,,,,,,,,,,,,,,,,,,2019-05-23_19h57.38.185,Probabilistic Learning,3.1.0,60,,,,,c,0,0.413,1,0,6,4,1,5,hiragana5.xlsx,hiragana51.xlsx,6,0,180,26,1,179,j,S,m,,,c,,,,,,,,,,,,,,,,,,,,
,,,,,,,,,,,,,,,,,,2019-05-23_19h57.38.185,Probabilistic Learning,3.1.0,60,,,,,c,0,0.396,1,0,6,4,1,5,hiragana5.xlsx,hiragana51.xlsx,6,0,180,8,1,179,Q,B,m,c,,,,,,,,,,,,,,,,,,,,,,
,,,,,,,,,,,,,,,,,,2019-05-23_19h57.38.185,Probabilistic Learning,3.1.0,60,,,,,m,1,0.347,1,0,6,4,1,5,hiragana5.xlsx,hiragana51.xlsx,6,0,180,23,1,179,S,j,m,,,m,,,,,,,,,,,,,,,,,,,,
,,,,,,,,,,,,,,,,,,2019-05-23_19h57.38.185,Probabilistic Learning,3.1.0,60,,,,,c,1,0.364,1,0,6,4,1,5,hiragana5.xlsx,hiragana51.xlsx,6,0,180,12,1,179,h,G,c,,c,,,,,,,,,,,,,,,,,,,,,
,,,,,,,,,,,,,,,,,,2019-05-23_19h57.38.185,Probabilistic Learning,3.1.0,60,,,,,c,0,0.381,1,0,6,4,1,5,hiragana5.xlsx,hiragana51.xlsx,6,0,180,27,1,179,j,S,m,,,c,,,,,,,,,,,,,,,,,,,,
,,,,,,,,,,,,,,,,,,2019-05-23_19h57.38.185,Probabilistic Learning,3.1.0,60,,,,,c,1,0.363,1,0,6,4,1,5,hiragana5.xlsx,hiragana51.xlsx,6,0,180,1,1,179,Q,B,c,c,,,,,,,,,,,,,,,,,,,,,,
,,,,,,,,,,,,,,,,,,2019-05-23_19h57.38.185,Probabilistic Learning,3.1.0,60,,,,,c,1,0.379,1,0,6,4,1,5,hiragana5.xlsx,hiragana51.xlsx,6,0,180,3,1,179,Q,B,c,c,,,,,,,,,,,,,,,,,,,,,,
,,,,,,,,,,,,,,,,,,2019-05-23_19h57.38.185,Probabilistic Learning,3.1.0,60,,,,,c,1,0.362,1,0,6,4,1,5,hiragana5.xlsx,hiragana51.xlsx,6,0,180,2,1,179,Q,B,c,c,,,,,,,,,,,,,,,,,,,,,,
,,,,,,,,,,,,,,,,,,2019-05-23_19h57.38.185,Probabilistic Learning,3.1.0,60,,,,,m,1,0.398,1,0,6,4,1,5,hiragana5.xlsx,hiragana51.xlsx,6,0,180,14,1,179,G,h,m,,m,,,,,,,,,,,,,,,,,,,,,
,,,,,,,,,,,,,,,,,,2019-05-23_19h57.38.185,Probabilistic Learning,3.1.0,60,,,,,m,0,0.348,1,0,6,4,1,5,hiragana5.xlsx,hiragana51.xlsx,6,0,180,29,1,179,S,j,c,,,m,,,,,,,,,,,,,,,,,,,,
,,,,,,,,,,,,,,,,,,2019-05-23_19h57.38.185,Probabilistic Learning,3.1.0,60,,,,,m,1,0.314,1,0,6,4,1,5,hiragana5.xlsx,hiragana51.xlsx,6,0,180,15,1,179,G,h,m,,m,,,,,,,,,,,,,,,,,,,,,
,,,,,,,,,,,,,,,,,,2019-05-23_19h57.38.185,Probabilistic Learning,3.1.0,60,,,,,m,1,0.396,1,0,6,4,1,5,hiragana5.xlsx,hiragana51.xlsx,6,0,180,5,1,179,B,Q,m,m,,,,,,,,,,,,,,,,,,,,,,
,,,,,,,,,,,,,,,,,,2019-05-23_19h57.38.185,Probabilistic Learning,3.1.0,60,,,,,c,1,0.363,1,0,6,4,1,5,hiragana5.xlsx,hiragana51.xlsx,6,0,180,22,1,179,j,S,c,,,c,,,,,,,,,,,,,,,,,,,,
,,,,,,,,,,,,,,,,,,2019-05-23_19h57.38.185,Probabilistic Learning,3.1.0,60,,,,,c,1,0.295,1,0,6,4,1,5,hiragana5.xlsx,hiragana51.xlsx,6,0,180,10,1,179,h,G,c,,c,,,,,,,,,,,,,,,,,,,,,
,,,,,,,,,,,,,,,,,,2019-05-23_19h57.38.185,Probabilistic Learning,3.1.0,60,,,,,m,1,0.397,1,0,6,4,1,5,hiragana5.xlsx,hiragana51.xlsx,6,0,180,25,1,179,S,j,m,,,m,,,,,,,,,,,,,,,,,,,,
,,,,,,,,,,,,,,,,,,2019-05-23_19h57.38.185,Probabilistic Learning,3.1.0,60,,,,,c,1,0.379,1,0,6,4,1,5,hiragana5.xlsx,hiragana51.xlsx,6,0,180,11,1,179,h,G,c,,c,,,,,,,,,,,,,,,,,,,,,
,,,,,,,,,,,,,,,,,,2019-05-23_19h57.38.185,Probabilistic Learning,3.1.0,60,,,,,m,0,0.379,1,0,6,4,1,5,hiragana5.xlsx,hiragana51.xlsx,6,0,180,28,1,179,S,j,c,,,m,,,,,,,,,,,,,,,,,,,,
,,,,,,,,,,,,,,,,,,2019-05-23_19h57.38.185,Probabilistic Learning,3.1.0,60,,,,,m,1,0.394,1,0,6,4,1,5,hiragana5.xlsx,hiragana51.xlsx,6,0,180,4,1,179,B,Q,m,m,,,,,,,,,,,,,,,,,,,,,,
,,,,,,,,,,,,,,,,,,2019-05-23_19h57.38.185,Probabilistic Learning,3.1.0,60,,,,,m,0,0.429,1,0,6,4,1,5,hiragana5.xlsx,hiragana51.xlsx,6,0,180,9,1,179,B,Q,c,m,,,,,,,,,,,,,,,,,,,,,,
,,,,,,,,,,,,,,,,,,2019-05-23_19h57.38.185,Probabilistic Learning,3.1.0,60,,,,,c,0,0.346,1,0,6,4,1,5,hiragana5.xlsx,hiragana51.xlsx,6,0,180,19,1,179,h,G,m,,c,,,,,,,,,,,,,,,,,,,,,
,,,,,,,,,,,,,,,,,,2019-05-23_19h57.38.185,Probabilistic Learning,3.1.0,60,,,,,c,1,0.429,1,0,6,4,1,5,hiragana5.xlsx,hiragana51.xlsx,6,0,180,21,1,179,j,S,c,,,c,,,,,,,,,,,,,,,,,,,,
,,,,,,,,,,,,,,,,,,2019-05-23_19h57.38.185,Probabilistic Learning,3.1.0,60,,,,,c,1,0.396,1,0,6,4,1,5,hiragana5.xlsx,hiragana51.xlsx,6,0,180,0,1,179,Q,B,c,c,,,,,,,,,,,,,,,,,,,,,,
,,,,,,,,,,,,,,,,,,2019-05-23_19h57.38.185,Probabilistic Learning,3.1.0,60,,,,,m,1,0.464,1,0,6,4,1,5,hiragana5.xlsx,hiragana51.xlsx,6,0,180,6,1,179,B,Q,m,m,,,,,,,,,,,,,,,,,,,,,,
,,,,,,,,,,,,,,,,,,2019-05-23_19h57.38.185,Probabilistic Learning,3.1.0,60,,,,,c,1,0.381,1,0,6,4,1,5,hiragana5.xlsx,hiragana51.xlsx,6,0,180,20,1,179,j,S,c,,,c,,,,,,,,,,,,,,,,,,,,
,,,,,,,,,,,,,,,,,,2019-05-23_19h57.38.185,Probabilistic Learning,3.1.0,60,,,,,m,0,0.347,1,0,6,4,1,5,hiragana5.xlsx,hiragana51.xlsx,6,0,180,17,1,179,G,h,c,,m,,,,,,,,,,,,,,,,,,,,,
,,,,,,,,,,,,,,,,,,2019-05-23_19h57.38.185,Probabilistic Learning,3.1.0,60,,,,,c,1,0.413,1,0,6,4,1,5,hiragana5.xlsx,hiragana51.xlsx,6,0,180,13,1,179,h,G,c,,c,,,,,,,,,,,,,,,,,,,,,
,,,,,,,,,,,,,,,,,,2019-05-23_19h57.38.185,Probabilistic Learning,3.1.0,60,,,,,m,1,0.38,1,0,6,4,1,5,hiragana5.xlsx,hiragana51.xlsx,6,0,180,7,1,179,B,Q,m,m,,,,,,,,,,,,,,,,,,,,,,
,,,,,,,,,,,,,,,,,,2019-05-23_19h57.38.185,Probabilistic Learning,3.1.0,60,,,,,c,0,0.446,1,0,6,4,1,5,hiragana5.xlsx,hiragana51.xlsx,6,0,180,24,1,179,S,j,m,,,m,,,,,,,,,,,,,,,,,,,,
,,,,,,,,,,,,,,,,,,2019-05-23_19h57.38.185,Probabilistic Learning,3.1.0,60,,,,,m,1,0.38,1,0,6,4,1,5,hiragana5.xlsx,hiragana51.xlsx,6,0,180,16,1,179,G,h,m,,m,,,,,,,,,,,,,,,,,,,,,
,,,,,,,,,,,,,,,,,,2019-05-23_19h57.38.185,Probabilistic Learning,3.1.0,60,,,,,m,0,0.364,1,0,6,4,1,5,hiragana5.xlsx,hiragana51.xlsx,6,0,180,18,1,179,G,h,c,,m,,,,,,,,,,,,,,,,,,,,,
,,,,,,,,,,,,,,,,,,2019-05-23_19h57.38.185,Probabilistic Learning,3.1.0,60,,,,,m,1,0.363,1,0,6,4,1,5,hiragana5.xlsx,hiragana51.xlsx,6,0,180,16,1,179,G,h,m,,m,,,,,,,,,,,,,,,,,,,,,
,,,,,,,,,,,,,,,,,,2019-05-23_19h57.38.185,Probabilistic Learning,3.1.0,60,,,,,m,1,0.345,1,0,6,4,1,5,hiragana5.xlsx,hiragana51.xlsx,6,0,180,14,1,179,G,h,m,,m,,,,,,,,,,,,,,,,,,,,,
,,,,,,,,,,,,,,,,,,2019-05-23_19h57.38.185,Probabilistic Learning,3.1.0,60,,,,,m,1,0.462,1,0,6,4,1,5,hiragana5.xlsx,hiragana51.xlsx,6,0,180,7,1,179,B,Q,m,m,,,,,,,,,,,,,,,,,,,,,,
,,,,,,,,,,,,,,,,,,2019-05-23_19h57.38.185,Probabilistic Learning,3.1.0,60,,,,,c,1,0.414,1,0,6,4,1,5,hiragana5.xlsx,hiragana51.xlsx,6,0,180,12,1,179,h,G,c,,c,,,,,,,,,,,,,,,,,,,,,
,,,,,,,,,,,,,,,,,,2019-05-23_19h57.38.185,Probabilistic Learning,3.1.0,60,,,,,c,1,0.362,1,0,6,4,1,5,hiragana5.xlsx,hiragana51.xlsx,6,0,180,13,1,179,h,G,c,,c,,,,,,,,,,,,,,,,,,,,,
,,,,,,,,,,,,,,,,,,2019-05-23_19h57.38.185,Probabilistic Learning,3.1.0,60,,,,,m,1,0.364,1,0,6,4,1,5,hiragana5.xlsx,hiragana51.xlsx,6,0,180,4,1,179,B,Q,m,m,,,,,,,,,,,,,,,,,,,,,,
,,,,,,,,,,,,,,,,,,2019-05-23_19h57.38.185,Probabilistic Learning,3.1.0,60,,,,,c,1,0.464,1,0,6,4,1,5,hiragana5.xlsx,hiragana51.xlsx,6,0,180,22,1,179,j,S,c,,,c,,,,,,,,,,,,,,,,,,,,
,,,,,,,,,,,,,,,,,,2019-05-23_19h57.38.185,Probabilistic Learning,3.1.0,60,,,,,c,1,0.411,1,0,6,4,1,5,hiragana5.xlsx,hiragana51.xlsx,6,0,180,11,1,179,h,G,c,,c,,,,,,,,,,,,,,,,,,,,,
,,,,,,,,,,,,,,,,,,2019-05-23_19h57.38.185,Probabilistic Learning,3.1.0,60,,,,,m,0,0.393,1,0,6,4,1,5,hiragana5.xlsx,hiragana51.xlsx,6,0,180,28,1,179,S,j,c,,,m,,,,,,,,,,,,,,,,,,,,
,,,,,,,,,,,,,,,,,,2019-05-23_19h57.38.185,Probabilistic Learning,3.1.0,60,,,,,c,0,0.38,1,0,6,4,1,5,hiragana5.xlsx,hiragana51.xlsx,6,0,180,26,1,179,j,S,m,,,c,,,,,,,,,,,,,,,,,,,,
,,,,,,,,,,,,,,,,,,2019-05-23_19h57.38.185,Probabilistic Learning,3.1.0,60,,,,,c,1,0.412,1,0,6,4,1,5,hiragana5.xlsx,hiragana51.xlsx,6,0,180,0,1,179,Q,B,c,c,,,,,,,,,,,,,,,,,,,,,,
,,,,,,,,,,,,,,,,,,2019-05-23_19h57.38.185,Probabilistic Learning,3.1.0,60,,,,,m,1,0.396,1,0,6,4,1,5,hiragana5.xlsx,hiragana51.xlsx,6,0,180,15,1,179,G,h,m,,m,,,,,,,,,,,,,,,,,,,,,
,,,,,,,,,,,,,,,,,,2019-05-23_19h57.38.185,Probabilistic Learning,3.1.0,60,,,,,m,0,0.413,1,0,6,4,1,5,hiragana5.xlsx,hiragana51.xlsx,6,0,180,29,1,179,S,j,c,,,m,,,,,,,,,,,,,,,,,,,,
,,,,,,,,,,,,,,,,,,2019-05-23_19h57.38.185,Probabilistic Learning,3.1.0,60,,,,,c,1,0.365,1,0,6,4,1,5,hiragana5.xlsx,hiragana51.xlsx,6,0,180,21,1,179,j,S,c,,,c,,,,,,,,,,,,,,,,,,,,
,,,,,,,,,,,,,,,,,,2019-05-23_19h57.38.185,Probabilistic Learning,3.1.0,60,,,,,c,0,0.412,1,0,6,4,1,5,hiragana5.xlsx,hiragana51.xlsx,6,0,180,19,1,179,h,G,m,,c,,,,,,,,,,,,,,,,,,,,,
,,,,,,,,,,,,,,,,,,2019-05-23_19h57.38.185,Probabilistic Learning,3.1.0,60,,,,,m,1,0.364,1,0,6,4,1,5,hiragana5.xlsx,hiragana51.xlsx,6,0,180,5,1,179,B,Q,m,m,,,,,,,,,,,,,,,,,,,,,,
,,,,,,,,,,,,,,,,,,2019-05-23_19h57.38.185,Probabilistic Learning,3.1.0,60,,,,,c,1,0.362,1,0,6,4,1,5,hiragana5.xlsx,hiragana51.xlsx,6,0,180,2,1,179,Q,B,c,c,,,,,,,,,,,,,,,,,,,,,,
,,,,,,,,,,,,,,,,,,2019-05-23_19h57.38.185,Probabilistic Learning,3.1.0,60,,,,,m,0,0.312,1,0,6,4,1,5,hiragana5.xlsx,hiragana51.xlsx,6,0,180,18,1,179,G,h,c,,m,,,,,,,,,,,,,,,,,,,,,
,,,,,,,,,,,,,,,,,,2019-05-23_19h57.38.185,Probabilistic Learning,3.1.0,60,,,,,m,0,0.348,1,0,6,4,1,5,hiragana5.xlsx,hiragana51.xlsx,6,0,180,17,1,179,G,h,c,,m,,,,,,,,,,,,,,,,,,,,,
,,,,,,,,,,,,,,,,,,2019-05-23_19h57.38.185,Probabilistic Learning,3.1.0,60,,,,,c,0,0.397,1,0,6,4,1,5,hiragana5.xlsx,hiragana51.xlsx,6,0,180,25,1,179,S,j,m,,,m,,,,,,,,,,,,,,,,,,,,
,,,,,,,,,,,,,,,,,,2019-05-23_19h57.38.185,Probabilistic Learning,3.1.0,60,,,,,m,1,0.33,1,0,6,4,1,5,hiragana5.xlsx,hiragana51.xlsx,6,0,180,24,1,179,S,j,m,,,m,,,,,,,,,,,,,,,,,,,,
,,,,,,,,,,,,,,,,,,2019-05-23_19h57.38.185,Probabilistic Learning,3.1.0,60,,,,,m,0,0.414,1,0,6,4,1,5,hiragana5.xlsx,hiragana51.xlsx,6,0,180,9,1,179,B,Q,c,m,,,,,,,,,,,,,,,,,,,,,,
,,,,,,,,,,,,,,,,,,2019-05-23_19h57.38.185,Probabilistic Learning,3.1.0,60,,,,,c,1,0.364,1,0,6,4,1,5,hiragana5.xlsx,hiragana51.xlsx,6,0,180,1,1,179,Q,B,c,c,,,,,,,,,,,,,,,,,,,,,,
,,,,,,,,,,,,,,,,,,2019-05-23_19h57.38.185,Probabilistic Learning,3.1.0,60,,,,,c,0,0.431,1,0,6,4,1,5,hiragana5.xlsx,hiragana51.xlsx,6,0,180,27,1,179,j,S,m,,,c,,,,,,,,,,,,,,,,,,,,
,,,,,,,,,,,,,,,,,,2019-05-23_19h57.38.185,Probabilistic Learning,3.1.0,60,,,,,c,1,0.363,1,0,6,4,1,5,hiragana5.xlsx,hiragana51.xlsx,6,0,180,20,1,179,j,S,c,,,c,,,,,,,,,,,,,,,,,,,,
,,,,,,,,,,,,,,,,,,2019-05-23_19h57.38.185,Probabilistic Learning,3.1.0,60,,,,,m,1,0.396,1,0,6,4,1,5,hiragana5.xlsx,hiragana51.xlsx,6,0,180,6,1,179,B,Q,m,m,,,,,,,,,,,,,,,,,,,,,,
,,,,,,,,,,,,,,,,,,2019-05-23_19h57.38.185,Probabilistic Learning,3.1.0,60,,,,,c,0,0.38,1,0,6,4,1,5,hiragana5.xlsx,hiragana51.xlsx,6,0,180,8,1,179,Q,B,m,c,,,,,,,,,,,,,,,,,,,,,,
