welc_resp.keys,welc_resp.rt,intr0_resp.keys,intr0_resp.rt,prep_resp.keys,prep_resp.corr,prep_resp.rt,preparation.thisRepN,preparation.thisTrialN,preparation.thisN,preparation.thisIndex,preparation.ran,preparation.order,letter10,letter20,corrAns0,Participant ID*,date,expName,psychopyVersion,frameRate,outro_resp.keys,outro_resp.rt,instr1_resp.keys,instr1_resp.rt,resp.keys,resp.corr,resp.rt,letterMaster.thisRepN,letterMaster.thisTrialN,letterMaster.thisN,letterMaster.thisIndex,letterMaster.ran,letterMaster.order,letterset,letterset2,letterset3,practice.thisRepN,practice.thisTrialN,practice.thisN,practice.thisIndex,practice.ran,practice.order,letter1,letter2,corrAns,letterA,letterC,letterE,instr2_resp.keys,instr2_resp.rt,instr3_resp.keys,instr3_resp.rt,test_resp.keys,test_resp.rt,test.thisRepN,test.thisTrialN,test.thisN,test.thisIndex,test.ran,test.order,letter3,letter4,letterA2,letterB2,pickA,avoidB,check_resp.keys,check_resp.rt,learnt_resp.keys,learnt_resp.rt,checks.thisRepN,checks.thisTrialN,checks.thisN,checks.thisIndex,checks.ran,checks.order,question,learnt_letters,numbers,outro_resp2.keys,outro_resp2.rt
c,12.902,c,12.432,c,1,0.635,1,0,10,6,1,9,U,L,c,10000,2019-06-04_13h33.31.286,Probabilistic Learning,3.1.0,60,,,,,,,,,,,,,,,,,,,,,,,,,,,,,,,,,,,,,,,,,,,,,,,,,,,,,,,,,,,,,
,,,,m,1,0.538,1,0,10,2,1,9,L,U,m,10000,2019-06-04_13h33.31.286,Probabilistic Learning,3.1.0,60,,,,,,,,,,,,,,,,,,,,,,,,,,,,,,,,,,,,,,,,,,,,,,,,,,,,,,,,,,,,,
,,,,m,1,0.437,1,0,10,3,1,9,L,U,m,10000,2019-06-04_13h33.31.286,Probabilistic Learning,3.1.0,60,,,,,,,,,,,,,,,,,,,,,,,,,,,,,,,,,,,,,,,,,,,,,,,,,,,,,,,,,,,,,
,,,,c,1,0.353,1,0,10,1,1,9,U,L,c,10000,2019-06-04_13h33.31.286,Probabilistic Learning,3.1.0,60,,,,,,,,,,,,,,,,,,,,,,,,,,,,,,,,,,,,,,,,,,,,,,,,,,,,,,,,,,,,,
,,,,m,0,0.405,1,0,10,0,1,9,U,L,c,10000,2019-06-04_13h33.31.286,Probabilistic Learning,3.1.0,60,,,,,,,,,,,,,,,,,,,,,,,,,,,,,,,,,,,,,,,,,,,,,,,,,,,,,,,,,,,,,
,,,,c,1,0.371,1,0,10,4,1,9,U,L,c,10000,2019-06-04_13h33.31.286,Probabilistic Learning,3.1.0,60,,,,,,,,,,,,,,,,,,,,,,,,,,,,,,,,,,,,,,,,,,,,,,,,,,,,,,,,,,,,,
,,,,c,1,0.454,1,0,10,5,1,9,U,L,c,10000,2019-06-04_13h33.31.286,Probabilistic Learning,3.1.0,60,,,,,,,,,,,,,,,,,,,,,,,,,,,,,,,,,,,,,,,,,,,,,,,,,,,,,,,,,,,,,
,,,,m,0,0.387,1,0,10,8,1,9,L,U,c,10000,2019-06-04_13h33.31.286,Probabilistic Learning,3.1.0,60,,,,,,,,,,,,,,,,,,,,,,,,,,,,,,,,,,,,,,,,,,,,,,,,,,,,,,,,,,,,,
,,,,c,0,0.355,1,0,10,9,1,9,U,L,m,10000,2019-06-04_13h33.31.286,Probabilistic Learning,3.1.0,60,,,,,,,,,,,,,,,,,,,,,,,,,,,,,,,,,,,,,,,,,,,,,,,,,,,,,,,,,,,,,
,,,,m,1,0.355,1,0,10,7,1,9,L,U,m,10000,2019-06-04_13h33.31.286,Probabilistic Learning,3.1.0,60,,,,,,,,,,,,,,,,,,,,,,,,,,,,,,,,,,,,,,,,,,,,,,,,,,,,,,,,,,,,,
,,,,,,,,,,,,,,,,10000,2019-06-04_13h33.31.286,Probabilistic Learning,3.1.0,60,m,7.545,m,12.163,m,0,0.522,1,0,3,1,1,2,hiragana2.xlsx,hiragana21.xlsx,hiragana22.xlsx,6,0,180,3,1,179,s,J,c,c,,,,,,,,,,,,,,,,,,,,,,,,,,,,,,,,,,,
,,,,,,,,,,,,,,,,10000,2019-06-04_13h33.31.286,Probabilistic Learning,3.1.0,60,,,,,c,1,0.437,1,0,3,1,1,2,hiragana2.xlsx,hiragana21.xlsx,hiragana22.xlsx,6,0,180,17,1,179,b,o,c,,m,,,,,,,,,,,,,,,,,,,,,,,,,,,,,,,,,,
,,,,,,,,,,,,,,,,10000,2019-06-04_13h33.31.286,Probabilistic Learning,3.1.0,60,,,,,c,1,0.456,1,0,3,1,1,2,hiragana2.xlsx,hiragana21.xlsx,hiragana22.xlsx,6,0,180,20,1,179,V,W,c,,,c,,,,,,,,,,,,,,,,,,,,,,,,,,,,,,,,,
,,,,,,,,,,,,,,,,10000,2019-06-04_13h33.31.286,Probabilistic Learning,3.1.0,60,,,,,c,1,0.388,1,0,3,1,1,2,hiragana2.xlsx,hiragana21.xlsx,hiragana22.xlsx,6,0,180,18,1,179,b,o,c,,m,,,,,,,,,,,,,,,,,,,,,,,,,,,,,,,,,,
,,,,,,,,,,,,,,,,10000,2019-06-04_13h33.31.286,Probabilistic Learning,3.1.0,60,,,,,c,0,0.455,1,0,3,1,1,2,hiragana2.xlsx,hiragana21.xlsx,hiragana22.xlsx,6,0,180,16,1,179,b,o,m,,m,,,,,,,,,,,,,,,,,,,,,,,,,,,,,,,,,,
,,,,,,,,,,,,,,,,10000,2019-06-04_13h33.31.286,Probabilistic Learning,3.1.0,60,,,,,c,0,0.455,1,0,3,1,1,2,hiragana2.xlsx,hiragana21.xlsx,hiragana22.xlsx,6,0,180,19,1,179,o,b,m,,c,,,,,,,,,,,,,,,,,,,,,,,,,,,,,,,,,,
,,,,,,,,,,,,,,,,10000,2019-06-04_13h33.31.286,Probabilistic Learning,3.1.0,60,,,,,c,0,0.522,1,0,3,1,1,2,hiragana2.xlsx,hiragana21.xlsx,hiragana22.xlsx,6,0,180,7,1,179,J,s,m,m,,,,,,,,,,,,,,,,,,,,,,,,,,,,,,,,,,,
,,,,,,,,,,,,,,,,10000,2019-06-04_13h33.31.286,Probabilistic Learning,3.1.0,60,,,,,m,0,0.654,1,0,3,1,1,2,hiragana2.xlsx,hiragana21.xlsx,hiragana22.xlsx,6,0,180,28,1,179,W,V,c,,,m,,,,,,,,,,,,,,,,,,,,,,,,,,,,,,,,,
,,,,,,,,,,,,,,,,10000,2019-06-04_13h33.31.286,Probabilistic Learning,3.1.0,60,,,,,c,0,0.505,1,0,3,1,1,2,hiragana2.xlsx,hiragana21.xlsx,hiragana22.xlsx,6,0,180,26,1,179,V,W,m,,,c,,,,,,,,,,,,,,,,,,,,,,,,,,,,,,,,,
,,,,,,,,,,,,,,,,10000,2019-06-04_13h33.31.286,Probabilistic Learning,3.1.0,60,,,,,c,1,0.489,1,0,3,1,1,2,hiragana2.xlsx,hiragana21.xlsx,hiragana22.xlsx,6,0,180,9,1,179,J,s,c,m,,,,,,,,,,,,,,,,,,,,,,,,,,,,,,,,,,,
,,,,,,,,,,,,,,,,10000,2019-06-04_13h33.31.286,Probabilistic Learning,3.1.0,60,,,,,c,0,0.554,1,0,3,1,1,2,hiragana2.xlsx,hiragana21.xlsx,hiragana22.xlsx,6,0,180,8,1,179,s,J,m,c,,,,,,,,,,,,,,,,,,,,,,,,,,,,,,,,,,,
,,,,,,,,,,,,,,,,10000,2019-06-04_13h33.31.286,Probabilistic Learning,3.1.0,60,,,,,c,0,0.64,1,0,3,1,1,2,hiragana2.xlsx,hiragana21.xlsx,hiragana22.xlsx,6,0,180,14,1,179,b,o,m,,m,,,,,,,,,,,,,,,,,,,,,,,,,,,,,,,,,,
,,,,,,,,,,,,,,,,10000,2019-06-04_13h33.31.286,Probabilistic Learning,3.1.0,60,,,,,m,1,0.637,1,0,3,1,1,2,hiragana2.xlsx,hiragana21.xlsx,hiragana22.xlsx,6,0,180,24,1,179,W,V,m,,,m,,,,,,,,,,,,,,,,,,,,,,,,,,,,,,,,,
,,,,,,,,,,,,,,,,10000,2019-06-04_13h33.31.286,Probabilistic Learning,3.1.0,60,,,,,c,0,0.656,1,0,3,1,1,2,hiragana2.xlsx,hiragana21.xlsx,hiragana22.xlsx,6,0,180,4,1,179,J,s,m,m,,,,,,,,,,,,,,,,,,,,,,,,,,,,,,,,,,,
,,,,,,,,,,,,,,,,10000,2019-06-04_13h33.31.286,Probabilistic Learning,3.1.0,60,,,,,m,0,0.588,1,0,3,1,1,2,hiragana2.xlsx,hiragana21.xlsx,hiragana22.xlsx,6,0,180,12,1,179,o,b,c,,c,,,,,,,,,,,,,,,,,,,,,,,,,,,,,,,,,,
,,,,,,,,,,,,,,,,10000,2019-06-04_13h33.31.286,Probabilistic Learning,3.1.0,60,,,,,m,1,0.722,1,0,3,1,1,2,hiragana2.xlsx,hiragana21.xlsx,hiragana22.xlsx,6,0,180,5,1,179,J,s,m,m,,,,,,,,,,,,,,,,,,,,,,,,,,,,,,,,,,,
,,,,,,,,,,,,,,,,10000,2019-06-04_13h33.31.286,Probabilistic Learning,3.1.0,60,,,,,m,1,0.622,1,0,3,1,1,2,hiragana2.xlsx,hiragana21.xlsx,hiragana22.xlsx,6,0,180,15,1,179,b,o,m,,m,,,,,,,,,,,,,,,,,,,,,,,,,,,,,,,,,,
,,,,,,,,,,,,,,,,10000,2019-06-04_13h33.31.286,Probabilistic Learning,3.1.0,60,,,,,m,0,0.653,1,0,3,1,1,2,hiragana2.xlsx,hiragana21.xlsx,hiragana22.xlsx,6,0,180,21,1,179,V,W,c,,,c,,,,,,,,,,,,,,,,,,,,,,,,,,,,,,,,,
,,,,,,,,,,,,,,,,10000,2019-06-04_13h33.31.286,Probabilistic Learning,3.1.0,60,,,,,m,1,0.755,1,0,3,1,1,2,hiragana2.xlsx,hiragana21.xlsx,hiragana22.xlsx,6,0,180,6,1,179,J,s,m,m,,,,,,,,,,,,,,,,,,,,,,,,,,,,,,,,,,,
,,,,,,,,,,,,,,,,10000,2019-06-04_13h33.31.286,Probabilistic Learning,3.1.0,60,,,,,m,0,0.688,1,0,3,1,1,2,hiragana2.xlsx,hiragana21.xlsx,hiragana22.xlsx,6,0,180,22,1,179,V,W,c,,,c,,,,,,,,,,,,,,,,,,,,,,,,,,,,,,,,,
,,,,,,,,,,,,,,,,10000,2019-06-04_13h33.31.286,Probabilistic Learning,3.1.0,60,,,,,c,1,0.672,1,0,3,1,1,2,hiragana2.xlsx,hiragana21.xlsx,hiragana22.xlsx,6,0,180,1,1,179,s,J,c,c,,,,,,,,,,,,,,,,,,,,,,,,,,,,,,,,,,,
,,,,,,,,,,,,,,,,10000,2019-06-04_13h33.31.286,Probabilistic Learning,3.1.0,60,,,,,m,0,0.721,1,0,3,1,1,2,hiragana2.xlsx,hiragana21.xlsx,hiragana22.xlsx,6,0,180,10,1,179,o,b,c,,c,,,,,,,,,,,,,,,,,,,,,,,,,,,,,,,,,,
,,,,,,,,,,,,,,,,10000,2019-06-04_13h33.31.286,Probabilistic Learning,3.1.0,60,,,,,m,0,0.505,1,0,3,1,1,2,hiragana2.xlsx,hiragana21.xlsx,hiragana22.xlsx,6,0,180,13,1,179,o,b,c,,c,,,,,,,,,,,,,,,,,,,,,,,,,,,,,,,,,,
,,,,,,,,,,,,,,,,10000,2019-06-04_13h33.31.286,Probabilistic Learning,3.1.0,60,,,,,c,0,0.789,1,0,3,1,1,2,hiragana2.xlsx,hiragana21.xlsx,hiragana22.xlsx,6,0,180,27,1,179,V,W,m,,,c,,,,,,,,,,,,,,,,,,,,,,,,,,,,,,,,,
,,,,,,,,,,,,,,,,10000,2019-06-04_13h33.31.286,Probabilistic Learning,3.1.0,60,,,,,m,0,0.828,1,0,3,1,1,2,hiragana2.xlsx,hiragana21.xlsx,hiragana22.xlsx,6,0,180,29,1,179,W,V,c,,,m,,,,,,,,,,,,,,,,,,,,,,,,,,,,,,,,,
,,,,,,,,,,,,,,,,10000,2019-06-04_13h33.31.286,Probabilistic Learning,3.1.0,60,,,,,m,1,0.456,1,0,3,1,1,2,hiragana2.xlsx,hiragana21.xlsx,hiragana22.xlsx,6,0,180,25,1,179,W,V,m,,,m,,,,,,,,,,,,,,,,,,,,,,,,,,,,,,,,,
,,,,,,,,,,,,,,,,10000,2019-06-04_13h33.31.286,Probabilistic Learning,3.1.0,60,,,,,m,0,0.59,1,0,3,1,1,2,hiragana2.xlsx,hiragana21.xlsx,hiragana22.xlsx,6,0,180,11,1,179,o,b,c,,c,,,,,,,,,,,,,,,,,,,,,,,,,,,,,,,,,,
,,,,,,,,,,,,,,,,10000,2019-06-04_13h33.31.286,Probabilistic Learning,3.1.0,60,,,,,c,1,0.707,1,0,3,1,1,2,hiragana2.xlsx,hiragana21.xlsx,hiragana22.xlsx,6,0,180,0,1,179,s,J,c,c,,,,,,,,,,,,,,,,,,,,,,,,,,,,,,,,,,,
,,,,,,,,,,,,,,,,10000,2019-06-04_13h33.31.286,Probabilistic Learning,3.1.0,60,,,,,c,0,0.729,1,0,3,1,1,2,hiragana2.xlsx,hiragana21.xlsx,hiragana22.xlsx,6,0,180,23,1,179,W,V,m,,,m,,,,,,,,,,,,,,,,,,,,,,,,,,,,,,,,,
,,,,,,,,,,,,,,,,10000,2019-06-04_13h33.31.286,Probabilistic Learning,3.1.0,60,,,,,c,1,0.607,1,0,3,1,1,2,hiragana2.xlsx,hiragana21.xlsx,hiragana22.xlsx,6,0,180,2,1,179,s,J,c,c,,,,,,,,,,,,,,,,,,,,,,,,,,,,,,,,,,,
,,,,,,,,,,,,,,,,10000,2019-06-04_13h33.31.286,Probabilistic Learning,3.1.0,60,,,,,c,1,0.445,1,0,3,1,1,2,hiragana2.xlsx,hiragana21.xlsx,hiragana22.xlsx,6,0,180,1,1,179,s,J,c,c,,,,,,,,,,,,,,,,,,,,,,,,,,,,,,,,,,,
,,,,,,,,,,,,,,,,10000,2019-06-04_13h33.31.286,Probabilistic Learning,3.1.0,60,,,,,c,1,0.655,1,0,3,1,1,2,hiragana2.xlsx,hiragana21.xlsx,hiragana22.xlsx,6,0,180,21,1,179,V,W,c,,,c,,,,,,,,,,,,,,,,,,,,,,,,,,,,,,,,,
,,,,,,,,,,,,,,,,10000,2019-06-04_13h33.31.286,Probabilistic Learning,3.1.0,60,,,,,c,0,0.675,1,0,3,1,1,2,hiragana2.xlsx,hiragana21.xlsx,hiragana22.xlsx,6,0,180,8,1,179,s,J,m,c,,,,,,,,,,,,,,,,,,,,,,,,,,,,,,,,,,,
,,,,,,,,,,,,,,,,10000,2019-06-04_13h33.31.286,Probabilistic Learning,3.1.0,60,,,,,m,1,0.668,1,0,3,1,1,2,hiragana2.xlsx,hiragana21.xlsx,hiragana22.xlsx,6,0,180,14,1,179,b,o,m,,m,,,,,,,,,,,,,,,,,,,,,,,,,,,,,,,,,,
,,,,,,,,,,,,,,,,10000,2019-06-04_13h33.31.286,Probabilistic Learning,3.1.0,60,,,,,m,0,0.538,1,0,3,1,1,2,hiragana2.xlsx,hiragana21.xlsx,hiragana22.xlsx,6,0,180,18,1,179,b,o,c,,m,,,,,,,,,,,,,,,,,,,,,,,,,,,,,,,,,,
,,,,,,,,,,,,,,,,10000,2019-06-04_13h33.31.286,Probabilistic Learning,3.1.0,60,,,,,c,1,0.553,1,0,3,1,1,2,hiragana2.xlsx,hiragana21.xlsx,hiragana22.xlsx,6,0,180,20,1,179,V,W,c,,,c,,,,,,,,,,,,,,,,,,,,,,,,,,,,,,,,,
,,,,,,,,,,,,,,,,10000,2019-06-04_13h33.31.286,Probabilistic Learning,3.1.0,60,,,,,m,0,0.654,1,0,3,1,1,2,hiragana2.xlsx,hiragana21.xlsx,hiragana22.xlsx,6,0,180,10,1,179,o,b,c,,c,,,,,,,,,,,,,,,,,,,,,,,,,,,,,,,,,,
,,,,,,,,,,,,,,,,10000,2019-06-04_13h33.31.286,Probabilistic Learning,3.1.0,60,,,,,c,1,0.522,1,0,3,1,1,2,hiragana2.xlsx,hiragana21.xlsx,hiragana22.xlsx,6,0,180,11,1,179,o,b,c,,c,,,,,,,,,,,,,,,,,,,,,,,,,,,,,,,,,,
,,,,,,,,,,,,,,,,10000,2019-06-04_13h33.31.286,Probabilistic Learning,3.1.0,60,,,,,c,0,0.806,1,0,3,1,1,2,hiragana2.xlsx,hiragana21.xlsx,hiragana22.xlsx,6,0,180,6,1,179,J,s,m,m,,,,,,,,,,,,,,,,,,,,,,,,,,,,,,,,,,,
,,,,,,,,,,,,,,,,10000,2019-06-04_13h33.31.286,Probabilistic Learning,3.1.0,60,,,,,c,1,0.638,1,0,3,1,1,2,hiragana2.xlsx,hiragana21.xlsx,hiragana22.xlsx,6,0,180,22,1,179,V,W,c,,,c,,,,,,,,,,,,,,,,,,,,,,,,,,,,,,,,,
,,,,,,,,,,,,,,,,10000,2019-06-04_13h33.31.286,Probabilistic Learning,3.1.0,60,,,,,m,0,0.595,1,0,3,1,1,2,hiragana2.xlsx,hiragana21.xlsx,hiragana22.xlsx,6,0,180,29,1,179,W,V,c,,,m,,,,,,,,,,,,,,,,,,,,,,,,,,,,,,,,,
,,,,,,,,,,,,,,,,10000,2019-06-04_13h33.31.286,Probabilistic Learning,3.1.0,60,,,,,c,1,0.711,1,0,3,1,1,2,hiragana2.xlsx,hiragana21.xlsx,hiragana22.xlsx,6,0,180,3,1,179,s,J,c,c,,,,,,,,,,,,,,,,,,,,,,,,,,,,,,,,,,,
,,,,,,,,,,,,,,,,10000,2019-06-04_13h33.31.286,Probabilistic Learning,3.1.0,60,,,,,c,0,0.721,1,0,3,1,1,2,hiragana2.xlsx,hiragana21.xlsx,hiragana22.xlsx,6,0,180,27,1,179,V,W,m,,,c,,,,,,,,,,,,,,,,,,,,,,,,,,,,,,,,,
,,,,,,,,,,,,,,,,10000,2019-06-04_13h33.31.286,Probabilistic Learning,3.1.0,60,,,,,c,1,0.74,1,0,3,1,1,2,hiragana2.xlsx,hiragana21.xlsx,hiragana22.xlsx,6,0,180,17,1,179,b,o,c,,m,,,,,,,,,,,,,,,,,,,,,,,,,,,,,,,,,,
,,,,,,,,,,,,,,,,10000,2019-06-04_13h33.31.286,Probabilistic Learning,3.1.0,60,,,,,c,1,0.748,1,0,3,1,1,2,hiragana2.xlsx,hiragana21.xlsx,hiragana22.xlsx,6,0,180,2,1,179,s,J,c,c,,,,,,,,,,,,,,,,,,,,,,,,,,,,,,,,,,,
,,,,,,,,,,,,,,,,10000,2019-06-04_13h33.31.286,Probabilistic Learning,3.1.0,60,,,,,c,1,0.756,1,0,3,1,1,2,hiragana2.xlsx,hiragana21.xlsx,hiragana22.xlsx,6,0,180,13,1,179,o,b,c,,c,,,,,,,,,,,,,,,,,,,,,,,,,,,,,,,,,,
,,,,,,,,,,,,,,,,10000,2019-06-04_13h33.31.286,Probabilistic Learning,3.1.0,60,,,,,c,0,0.504,1,0,3,1,1,2,hiragana2.xlsx,hiragana21.xlsx,hiragana22.xlsx,6,0,180,19,1,179,o,b,m,,c,,,,,,,,,,,,,,,,,,,,,,,,,,,,,,,,,,
,,,,,,,,,,,,,,,,10000,2019-06-04_13h33.31.286,Probabilistic Learning,3.1.0,60,,,,,m,1,0.755,1,0,3,1,1,2,hiragana2.xlsx,hiragana21.xlsx,hiragana22.xlsx,6,0,180,4,1,179,J,s,m,m,,,,,,,,,,,,,,,,,,,,,,,,,,,,,,,,,,,
,,,,,,,,,,,,,,,,10000,2019-06-04_13h33.31.286,Probabilistic Learning,3.1.0,60,,,,,c,1,0.673,1,0,3,1,1,2,hiragana2.xlsx,hiragana21.xlsx,hiragana22.xlsx,6,0,180,0,1,179,s,J,c,c,,,,,,,,,,,,,,,,,,,,,,,,,,,,,,,,,,,
,,,,,,,,,,,,,,,,10000,2019-06-04_13h33.31.286,Probabilistic Learning,3.1.0,60,,,,,m,1,0.891,1,0,3,1,1,2,hiragana2.xlsx,hiragana21.xlsx,hiragana22.xlsx,6,0,180,26,1,179,V,W,m,,,c,,,,,,,,,,,,,,,,,,,,,,,,,,,,,,,,,
,,,,,,,,,,,,,,,,10000,2019-06-04_13h33.31.286,Probabilistic Learning,3.1.0,60,,,,,c,1,0.521,1,0,3,1,1,2,hiragana2.xlsx,hiragana21.xlsx,hiragana22.xlsx,6,0,180,28,1,179,W,V,c,,,m,,,,,,,,,,,,,,,,,,,,,,,,,,,,,,,,,
,,,,,,,,,,,,,,,,10000,2019-06-04_13h33.31.286,Probabilistic Learning,3.1.0,60,,,,,c,0,0.442,1,0,3,1,1,2,hiragana2.xlsx,hiragana21.xlsx,hiragana22.xlsx,6,0,180,24,1,179,W,V,m,,,m,,,,,,,,,,,,,,,,,,,,,,,,,,,,,,,,,
,,,,,,,,,,,,,,,,10000,2019-06-04_13h33.31.286,Probabilistic Learning,3.1.0,60,,,,,c,1,0.923,1,0,3,1,1,2,hiragana2.xlsx,hiragana21.xlsx,hiragana22.xlsx,6,0,180,12,1,179,o,b,c,,c,,,,,,,,,,,,,,,,,,,,,,,,,,,,,,,,,,
,,,,,,,,,,,,,,,,10000,2019-06-04_13h33.31.286,Probabilistic Learning,3.1.0,60,,,,,m,1,0.588,1,0,3,1,1,2,hiragana2.xlsx,hiragana21.xlsx,hiragana22.xlsx,6,0,180,16,1,179,b,o,m,,m,,,,,,,,,,,,,,,,,,,,,,,,,,,,,,,,,,
,,,,,,,,,,,,,,,,10000,2019-06-04_13h33.31.286,Probabilistic Learning,3.1.0,60,,,,,m,1,0.689,1,0,3,1,1,2,hiragana2.xlsx,hiragana21.xlsx,hiragana22.xlsx,6,0,180,5,1,179,J,s,m,m,,,,,,,,,,,,,,,,,,,,,,,,,,,,,,,,,,,
,,,,,,,,,,,,,,,,10000,2019-06-04_13h33.31.286,Probabilistic Learning,3.1.0,60,,,,,m,1,0.505,1,0,3,1,1,2,hiragana2.xlsx,hiragana21.xlsx,hiragana22.xlsx,6,0,180,15,1,179,b,o,m,,m,,,,,,,,,,,,,,,,,,,,,,,,,,,,,,,,,,
,,,,,,,,,,,,,,,,10000,2019-06-04_13h33.31.286,Probabilistic Learning,3.1.0,60,,,,,c,0,0.871,1,0,3,1,1,2,hiragana2.xlsx,hiragana21.xlsx,hiragana22.xlsx,6,0,180,23,1,179,W,V,m,,,m,,,,,,,,,,,,,,,,,,,,,,,,,,,,,,,,,
,,,,,,,,,,,,,,,,10000,2019-06-04_13h33.31.286,Probabilistic Learning,3.1.0,60,,,,,m,1,0.739,1,0,3,1,1,2,hiragana2.xlsx,hiragana21.xlsx,hiragana22.xlsx,6,0,180,7,1,179,J,s,m,m,,,,,,,,,,,,,,,,,,,,,,,,,,,,,,,,,,,
,,,,,,,,,,,,,,,,10000,2019-06-04_13h33.31.286,Probabilistic Learning,3.1.0,60,,,,,m,0,0.471,1,0,3,1,1,2,hiragana2.xlsx,hiragana21.xlsx,hiragana22.xlsx,6,0,180,9,1,179,J,s,c,m,,,,,,,,,,,,,,,,,,,,,,,,,,,,,,,,,,,
,,,,,,,,,,,,,,,,10000,2019-06-04_13h33.31.286,Probabilistic Learning,3.1.0,60,,,,,c,0,0.871,1,0,3,1,1,2,hiragana2.xlsx,hiragana21.xlsx,hiragana22.xlsx,6,0,180,25,1,179,W,V,m,,,m,,,,,,,,,,,,,,,,,,,,,,,,,,,,,,,,,
,,,,,,,,,,,,,,,,10000,2019-06-04_13h33.31.286,Probabilistic Learning,3.1.0,60,,,,,c,1,0.453,1,0,3,1,1,2,hiragana2.xlsx,hiragana21.xlsx,hiragana22.xlsx,6,0,180,29,1,179,W,V,c,,,m,,,,,,,,,,,,,,,,,,,,,,,,,,,,,,,,,
,,,,,,,,,,,,,,,,10000,2019-06-04_13h33.31.286,Probabilistic Learning,3.1.0,60,,,,,m,1,0.538,1,0,3,1,1,2,hiragana2.xlsx,hiragana21.xlsx,hiragana22.xlsx,6,0,180,7,1,179,J,s,m,m,,,,,,,,,,,,,,,,,,,,,,,,,,,,,,,,,,,
,,,,,,,,,,,,,,,,10000,2019-06-04_13h33.31.286,Probabilistic Learning,3.1.0,60,,,,,c,1,0.621,1,0,3,1,1,2,hiragana2.xlsx,hiragana21.xlsx,hiragana22.xlsx,6,0,180,11,1,179,o,b,c,,c,,,,,,,,,,,,,,,,,,,,,,,,,,,,,,,,,,
,,,,,,,,,,,,,,,,10000,2019-06-04_13h33.31.286,Probabilistic Learning,3.1.0,60,,,,,c,1,0.571,1,0,3,1,1,2,hiragana2.xlsx,hiragana21.xlsx,hiragana22.xlsx,6,0,180,0,1,179,s,J,c,c,,,,,,,,,,,,,,,,,,,,,,,,,,,,,,,,,,,
,,,,,,,,,,,,,,,,10000,2019-06-04_13h33.31.286,Probabilistic Learning,3.1.0,60,,,,,c,1,0.738,1,0,3,1,1,2,hiragana2.xlsx,hiragana21.xlsx,hiragana22.xlsx,6,0,180,21,1,179,V,W,c,,,c,,,,,,,,,,,,,,,,,,,,,,,,,,,,,,,,,
,,,,,,,,,,,,,,,,10000,2019-06-04_13h33.31.286,Probabilistic Learning,3.1.0,60,,,,,c,0,0.79,1,0,3,1,1,2,hiragana2.xlsx,hiragana21.xlsx,hiragana22.xlsx,6,0,180,25,1,179,W,V,m,,,m,,,,,,,,,,,,,,,,,,,,,,,,,,,,,,,,,
,,,,,,,,,,,,,,,,10000,2019-06-04_13h33.31.286,Probabilistic Learning,3.1.0,60,,,,,c,0,0.612,1,0,3,1,1,2,hiragana2.xlsx,hiragana21.xlsx,hiragana22.xlsx,6,0,180,8,1,179,s,J,m,c,,,,,,,,,,,,,,,,,,,,,,,,,,,,,,,,,,,
,,,,,,,,,,,,,,,,10000,2019-06-04_13h33.31.286,Probabilistic Learning,3.1.0,60,,,,,c,0,0.888,1,0,3,1,1,2,hiragana2.xlsx,hiragana21.xlsx,hiragana22.xlsx,6,0,180,27,1,179,V,W,m,,,c,,,,,,,,,,,,,,,,,,,,,,,,,,,,,,,,,
,,,,,,,,,,,,,,,,10000,2019-06-04_13h33.31.286,Probabilistic Learning,3.1.0,60,,,,,c,1,0.47,1,0,3,1,1,2,hiragana2.xlsx,hiragana21.xlsx,hiragana22.xlsx,6,0,180,22,1,179,V,W,c,,,c,,,,,,,,,,,,,,,,,,,,,,,,,,,,,,,,,
,,,,,,,,,,,,,,,,10000,2019-06-04_13h33.31.286,Probabilistic Learning,3.1.0,60,,,,,m,1,0.572,1,0,3,1,1,2,hiragana2.xlsx,hiragana21.xlsx,hiragana22.xlsx,6,0,180,5,1,179,J,s,m,m,,,,,,,,,,,,,,,,,,,,,,,,,,,,,,,,,,,
,,,,,,,,,,,,,,,,10000,2019-06-04_13h33.31.286,Probabilistic Learning,3.1.0,60,,,,,m,1,0.805,1,0,3,1,1,2,hiragana2.xlsx,hiragana21.xlsx,hiragana22.xlsx,6,0,180,24,1,179,W,V,m,,,m,,,,,,,,,,,,,,,,,,,,,,,,,,,,,,,,,
,,,,,,,,,,,,,,,,10000,2019-06-04_13h33.31.286,Probabilistic Learning,3.1.0,60,,,,,c,1,0.471,1,0,3,1,1,2,hiragana2.xlsx,hiragana21.xlsx,hiragana22.xlsx,6,0,180,20,1,179,V,W,c,,,c,,,,,,,,,,,,,,,,,,,,,,,,,,,,,,,,,
,,,,,,,,,,,,,,,,10000,2019-06-04_13h33.31.286,Probabilistic Learning,3.1.0,60,,,,,m,1,0.623,1,0,3,1,1,2,hiragana2.xlsx,hiragana21.xlsx,hiragana22.xlsx,6,0,180,14,1,179,b,o,m,,m,,,,,,,,,,,,,,,,,,,,,,,,,,,,,,,,,,
,,,,,,,,,,,,,,,,10000,2019-06-04_13h33.31.286,Probabilistic Learning,3.1.0,60,,,,,c,0,0.589,1,0,3,1,1,2,hiragana2.xlsx,hiragana21.xlsx,hiragana22.xlsx,6,0,180,26,1,179,V,W,m,,,c,,,,,,,,,,,,,,,,,,,,,,,,,,,,,,,,,
,,,,,,,,,,,,,,,,10000,2019-06-04_13h33.31.286,Probabilistic Learning,3.1.0,60,,,,,m,0,0.556,1,0,3,1,1,2,hiragana2.xlsx,hiragana21.xlsx,hiragana22.xlsx,6,0,180,28,1,179,W,V,c,,,m,,,,,,,,,,,,,,,,,,,,,,,,,,,,,,,,,
,,,,,,,,,,,,,,,,10000,2019-06-04_13h33.31.286,Probabilistic Learning,3.1.0,60,,,,,m,0,0.521,1,0,3,1,1,2,hiragana2.xlsx,hiragana21.xlsx,hiragana22.xlsx,6,0,180,17,1,179,b,o,c,,m,,,,,,,,,,,,,,,,,,,,,,,,,,,,,,,,,,
,,,,,,,,,,,,,,,,10000,2019-06-04_13h33.31.286,Probabilistic Learning,3.1.0,60,,,,,m,0,0.471,1,0,3,1,1,2,hiragana2.xlsx,hiragana21.xlsx,hiragana22.xlsx,,,,,,,,,,,,,m,18.476,c,21.536,c,0.64,2,0,92,38,1,91,o,V,C,E,,,,,,,,,,,,,,,,,
,,,,,,,,,,,,,,,,10000,2019-06-04_13h33.31.286,Probabilistic Learning,3.1.0,60,,,,,,,,1,0,3,1,1,2,hiragana2.xlsx,hiragana21.xlsx,hiragana22.xlsx,,,,,,,,,,,,,,,,,c,0.608,2,0,92,44,1,91,b,W,d,f,,,,,,,,,,,,,,,,,
,,,,,,,,,,,,,,,,10000,2019-06-04_13h33.31.286,Probabilistic Learning,3.1.0,60,,,,,,,,1,0,3,1,1,2,hiragana2.xlsx,hiragana21.xlsx,hiragana22.xlsx,,,,,,,,,,,,,,,,,c,0.487,2,0,92,11,1,91,s,b,A,D,c,,,,,,,,,,,,,,,,
,,,,,,,,,,,,,,,,10000,2019-06-04_13h33.31.286,Probabilistic Learning,3.1.0,60,,,,,,,,1,0,3,1,1,2,hiragana2.xlsx,hiragana21.xlsx,hiragana22.xlsx,,,,,,,,,,,,,,,,,m,0.407,2,0,92,17,1,91,V,s,E,A,m,,,,,,,,,,,,,,,,
,,,,,,,,,,,,,,,,10000,2019-06-04_13h33.31.286,Probabilistic Learning,3.1.0,60,,,,,,,,1,0,3,1,1,2,hiragana2.xlsx,hiragana21.xlsx,hiragana22.xlsx,,,,,,,,,,,,,,,,,m,0.423,2,0,92,1,1,91,J,s,B,A,,,,,,,,,,,,,,,,,
,,,,,,,,,,,,,,,,10000,2019-06-04_13h33.31.286,Probabilistic Learning,3.1.0,60,,,,,,,,1,0,3,1,1,2,hiragana2.xlsx,hiragana21.xlsx,hiragana22.xlsx,,,,,,,,,,,,,,,,,c,0.539,2,0,92,42,1,91,b,V,d,e,,,,,,,,,,,,,,,,,
,,,,,,,,,,,,,,,,10000,2019-06-04_13h33.31.286,Probabilistic Learning,3.1.0,60,,,,,,,,1,0,3,1,1,2,hiragana2.xlsx,hiragana21.xlsx,hiragana22.xlsx,,,,,,,,,,,,,,,,,c,0.543,2,0,92,14,1,91,s,V,A,E,c,,,,,,,,,,,,,,,,
,,,,,,,,,,,,,,,,10000,2019-06-04_13h33.31.286,Probabilistic Learning,3.1.0,60,,,,,,,,1,0,3,1,1,2,hiragana2.xlsx,hiragana21.xlsx,hiragana22.xlsx,,,,,,,,,,,,,,,,,c,0.706,2,0,92,32,1,91,V,J,E,B,,c,,,,,,,,,,,,,,,
,,,,,,,,,,,,,,,,10000,2019-06-04_13h33.31.286,Probabilistic Learning,3.1.0,60,,,,,,,,1,0,3,1,1,2,hiragana2.xlsx,hiragana21.xlsx,hiragana22.xlsx,,,,,,,,,,,,,,,,,m,0.587,2,0,92,22,1,91,J,o,B,C,,m,,,,,,,,,,,,,,,
,,,,,,,,,,,,,,,,10000,2019-06-04_13h33.31.286,Probabilistic Learning,3.1.0,60,,,,,,,,1,0,3,1,1,2,hiragana2.xlsx,hiragana21.xlsx,hiragana22.xlsx,,,,,,,,,,,,,,,,,m,0.84,2,0,92,5,1,91,W,V,F,E,,,,,,,,,,,,,,,,,
,,,,,,,,,,,,,,,,10000,2019-06-04_13h33.31.286,Probabilistic Learning,3.1.0,60,,,,,,,,1,0,3,1,1,2,hiragana2.xlsx,hiragana21.xlsx,hiragana22.xlsx,,,,,,,,,,,,,,,,,c,0.672,2,0,92,45,1,91,W,b,f,d,,,,,,,,,,,,,,,,,
,,,,,,,,,,,,,,,,10000,2019-06-04_13h33.31.286,Probabilistic Learning,3.1.0,60,,,,,,,,1,0,3,1,1,2,hiragana2.xlsx,hiragana21.xlsx,hiragana22.xlsx,,,,,,,,,,,,,,,,,m,0.673,2,0,92,20,1,91,W,s,F,A,m,,,,,,,,,,,,,,,,
,,,,,,,,,,,,,,,,10000,2019-06-04_13h33.31.286,Probabilistic Learning,3.1.0,60,,,,,,,,1,0,3,1,1,2,hiragana2.xlsx,hiragana21.xlsx,hiragana22.xlsx,,,,,,,,,,,,,,,,,c,0.572,2,0,92,25,1,91,o,J,C,B,,c,,,,,,,,,,,,,,,
,,,,,,,,,,,,,,,,10000,2019-06-04_13h33.31.286,Probabilistic Learning,3.1.0,60,,,,,,,,1,0,3,1,1,2,hiragana2.xlsx,hiragana21.xlsx,hiragana22.xlsx,,,,,,,,,,,,,,,,,m,0.624,2,0,92,27,1,91,J,b,B,D,,m,,,,,,,,,,,,,,,
,,,,,,,,,,,,,,,,10000,2019-06-04_13h33.31.286,Probabilistic Learning,3.1.0,60,,,,,,,,1,0,3,1,1,2,hiragana2.xlsx,hiragana21.xlsx,hiragana22.xlsx,,,,,,,,,,,,,,,,,m,0.536,2,0,92,43,1,91,V,b,e,d,,,,,,,,,,,,,,,,,
,,,,,,,,,,,,,,,,10000,2019-06-04_13h33.31.286,Probabilistic Learning,3.1.0,60,,,,,,,,1,0,3,1,1,2,hiragana2.xlsx,hiragana21.xlsx,hiragana22.xlsx,,,,,,,,,,,,,,,,,c,0.722,2,0,92,6,1,91,s,o,A,C,c,,,,,,,,,,,,,,,,
,,,,,,,,,,,,,,,,10000,2019-06-04_13h33.31.286,Probabilistic Learning,3.1.0,60,,,,,,,,1,0,3,1,1,2,hiragana2.xlsx,hiragana21.xlsx,hiragana22.xlsx,,,,,,,,,,,,,,,,,c,0.421,2,0,92,7,1,91,s,o,A,C,c,,,,,,,,,,,,,,,,
,,,,,,,,,,,,,,,,10000,2019-06-04_13h33.31.286,Probabilistic Learning,3.1.0,60,,,,,,,,1,0,3,1,1,2,hiragana2.xlsx,hiragana21.xlsx,hiragana22.xlsx,,,,,,,,,,,,,,,,,c,0.738,2,0,92,4,1,91,V,W,E,F,,,,,,,,,,,,,,,,,
,,,,,,,,,,,,,,,,10000,2019-06-04_13h33.31.286,Probabilistic Learning,3.1.0,60,,,,,,,,1,0,3,1,1,2,hiragana2.xlsx,hiragana21.xlsx,hiragana22.xlsx,,,,,,,,,,,,,,,,,c,0.872,2,0,92,19,1,91,s,W,A,F,c,,,,,,,,,,,,,,,,
,,,,,,,,,,,,,,,,10000,2019-06-04_13h33.31.286,Probabilistic Learning,3.1.0,60,,,,,,,,1,0,3,1,1,2,hiragana2.xlsx,hiragana21.xlsx,hiragana22.xlsx,,,,,,,,,,,,,,,,,c,0.891,2,0,92,40,1,91,o,W,c,f,,,,,,,,,,,,,,,,,
,,,,,,,,,,,,,,,,10000,2019-06-04_13h33.31.286,Probabilistic Learning,3.1.0,60,,,,,,,,1,0,3,1,1,2,hiragana2.xlsx,hiragana21.xlsx,hiragana22.xlsx,,,,,,,,,,,,,,,,,m,0.523,2,0,92,39,1,91,V,o,e,c,,,,,,,,,,,,,,,,,
,,,,,,,,,,,,,,,,10000,2019-06-04_13h33.31.286,Probabilistic Learning,3.1.0,60,,,,,,,,1,0,3,1,1,2,hiragana2.xlsx,hiragana21.xlsx,hiragana22.xlsx,,,,,,,,,,,,,,,,,c,0.99,2,0,92,36,1,91,W,J,F,B,,c,,,,,,,,,,,,,,,
,,,,,,,,,,,,,,,,10000,2019-06-04_13h33.31.286,Probabilistic Learning,3.1.0,60,,,,,,,,1,0,3,1,1,2,hiragana2.xlsx,hiragana21.xlsx,hiragana22.xlsx,,,,,,,,,,,,,,,,,c,0.988,2,0,92,33,1,91,V,J,E,B,,c,,,,,,,,,,,,,,,
,,,,,,,,,,,,,,,,10000,2019-06-04_13h33.31.286,Probabilistic Learning,3.1.0,60,,,,,,,,1,0,3,1,1,2,hiragana2.xlsx,hiragana21.xlsx,hiragana22.xlsx,,,,,,,,,,,,,,,,,c,0.691,2,0,92,18,1,91,s,W,A,F,c,,,,,,,,,,,,,,,,
,,,,,,,,,,,,,,,,10000,2019-06-04_13h33.31.286,Probabilistic Learning,3.1.0,60,,,,,,,,1,0,3,1,1,2,hiragana2.xlsx,hiragana21.xlsx,hiragana22.xlsx,,,,,,,,,,,,,,,,,m,1.238,2,0,92,35,1,91,J,W,B,F,,m,,,,,,,,,,,,,,,
,,,,,,,,,,,,,,,,10000,2019-06-04_13h33.31.286,Probabilistic Learning,3.1.0,60,,,,,,,,1,0,3,1,1,2,hiragana2.xlsx,hiragana21.xlsx,hiragana22.xlsx,,,,,,,,,,,,,,,,,c,0.705,2,0,92,37,1,91,W,J,F,B,,c,,,,,,,,,,,,,,,
,,,,,,,,,,,,,,,,10000,2019-06-04_13h33.31.286,Probabilistic Learning,3.1.0,60,,,,,,,,1,0,3,1,1,2,hiragana2.xlsx,hiragana21.xlsx,hiragana22.xlsx,,,,,,,,,,,,,,,,,m,0.621,2,0,92,41,1,91,W,o,f,c,,,,,,,,,,,,,,,,,
,,,,,,,,,,,,,,,,10000,2019-06-04_13h33.31.286,Probabilistic Learning,3.1.0,60,,,,,,,,1,0,3,1,1,2,hiragana2.xlsx,hiragana21.xlsx,hiragana22.xlsx,,,,,,,,,,,,,,,,,m,0.606,2,0,92,13,1,91,b,s,D,A,m,,,,,,,,,,,,,,,,
,,,,,,,,,,,,,,,,10000,2019-06-04_13h33.31.286,Probabilistic Learning,3.1.0,60,,,,,,,,1,0,3,1,1,2,hiragana2.xlsx,hiragana21.xlsx,hiragana22.xlsx,,,,,,,,,,,,,,,,,c,0.505,2,0,92,0,1,91,s,J,A,B,,,,,,,,,,,,,,,,,
,,,,,,,,,,,,,,,,10000,2019-06-04_13h33.31.286,Probabilistic Learning,3.1.0,60,,,,,,,,1,0,3,1,1,2,hiragana2.xlsx,hiragana21.xlsx,hiragana22.xlsx,,,,,,,,,,,,,,,,,m,0.639,2,0,92,8,1,91,o,s,C,A,m,,,,,,,,,,,,,,,,
,,,,,,,,,,,,,,,,10000,2019-06-04_13h33.31.286,Probabilistic Learning,3.1.0,60,,,,,,,,1,0,3,1,1,2,hiragana2.xlsx,hiragana21.xlsx,hiragana22.xlsx,,,,,,,,,,,,,,,,,c,0.64,2,0,92,28,1,91,b,J,D,B,,c,,,,,,,,,,,,,,,
,,,,,,,,,,,,,,,,10000,2019-06-04_13h33.31.286,Probabilistic Learning,3.1.0,60,,,,,,,,1,0,3,1,1,2,hiragana2.xlsx,hiragana21.xlsx,hiragana22.xlsx,,,,,,,,,,,,,,,,,c,0.473,2,0,92,24,1,91,o,J,C,B,,c,,,,,,,,,,,,,,,
,,,,,,,,,,,,,,,,10000,2019-06-04_13h33.31.286,Probabilistic Learning,3.1.0,60,,,,,,,,1,0,3,1,1,2,hiragana2.xlsx,hiragana21.xlsx,hiragana22.xlsx,,,,,,,,,,,,,,,,,c,0.622,2,0,92,12,1,91,b,s,D,A,m,,,,,,,,,,,,,,,,
,,,,,,,,,,,,,,,,10000,2019-06-04_13h33.31.286,Probabilistic Learning,3.1.0,60,,,,,,,,1,0,3,1,1,2,hiragana2.xlsx,hiragana21.xlsx,hiragana22.xlsx,,,,,,,,,,,,,,,,,,,2,0,92,30,1,91,J,V,B,E,,m,,,,,,,,,,,,,,,
,,,,,,,,,,,,,,,,10000,2019-06-04_13h33.31.286,Probabilistic Learning,3.1.0,60,,,,,,,,1,0,3,1,1,2,hiragana2.xlsx,hiragana21.xlsx,hiragana22.xlsx,,,,,,,,,,,,,,,,,c,1.203,2,0,92,29,1,91,b,J,D,B,,c,,,,,,,,,,,,,,,
,,,,,,,,,,,,,,,,10000,2019-06-04_13h33.31.286,Probabilistic Learning,3.1.0,60,,,,,,,,1,0,3,1,1,2,hiragana2.xlsx,hiragana21.xlsx,hiragana22.xlsx,,,,,,,,,,,,,,,,,m,0.922,2,0,92,9,1,91,o,s,C,A,m,,,,,,,,,,,,,,,,
,,,,,,,,,,,,,,,,10000,2019-06-04_13h33.31.286,Probabilistic Learning,3.1.0,60,,,,,,,,1,0,3,1,1,2,hiragana2.xlsx,hiragana21.xlsx,hiragana22.xlsx,,,,,,,,,,,,,,,,,m,1.206,2,0,92,31,1,91,J,V,B,E,,m,,,,,,,,,,,,,,,
,,,,,,,,,,,,,,,,10000,2019-06-04_13h33.31.286,Probabilistic Learning,3.1.0,60,,,,,,,,1,0,3,1,1,2,hiragana2.xlsx,hiragana21.xlsx,hiragana22.xlsx,,,,,,,,,,,,,,,,,c,0.656,2,0,92,15,1,91,s,V,A,E,c,,,,,,,,,,,,,,,,
,,,,,,,,,,,,,,,,10000,2019-06-04_13h33.31.286,Probabilistic Learning,3.1.0,60,,,,,,,,1,0,3,1,1,2,hiragana2.xlsx,hiragana21.xlsx,hiragana22.xlsx,,,,,,,,,,,,,,,,,m,0.758,2,0,92,3,1,91,b,o,D,C,,,,,,,,,,,,,,,,,
,,,,,,,,,,,,,,,,10000,2019-06-04_13h33.31.286,Probabilistic Learning,3.1.0,60,,,,,,,,1,0,3,1,1,2,hiragana2.xlsx,hiragana21.xlsx,hiragana22.xlsx,,,,,,,,,,,,,,,,,m,0.597,2,0,92,16,1,91,V,s,E,A,m,,,,,,,,,,,,,,,,
,,,,,,,,,,,,,,,,10000,2019-06-04_13h33.31.286,Probabilistic Learning,3.1.0,60,,,,,,,,1,0,3,1,1,2,hiragana2.xlsx,hiragana21.xlsx,hiragana22.xlsx,,,,,,,,,,,,,,,,,c,0.522,2,0,92,10,1,91,s,b,A,D,c,,,,,,,,,,,,,,,,
,,,,,,,,,,,,,,,,10000,2019-06-04_13h33.31.286,Probabilistic Learning,3.1.0,60,,,,,,,,1,0,3,1,1,2,hiragana2.xlsx,hiragana21.xlsx,hiragana22.xlsx,,,,,,,,,,,,,,,,,m,0.922,2,0,92,26,1,91,J,b,B,D,,m,,,,,,,,,,,,,,,
,,,,,,,,,,,,,,,,10000,2019-06-04_13h33.31.286,Probabilistic Learning,3.1.0,60,,,,,,,,1,0,3,1,1,2,hiragana2.xlsx,hiragana21.xlsx,hiragana22.xlsx,,,,,,,,,,,,,,,,,m,0.84,2,0,92,21,1,91,W,s,F,A,m,,,,,,,,,,,,,,,,
,,,,,,,,,,,,,,,,10000,2019-06-04_13h33.31.286,Probabilistic Learning,3.1.0,60,,,,,,,,1,0,3,1,1,2,hiragana2.xlsx,hiragana21.xlsx,hiragana22.xlsx,,,,,,,,,,,,,,,,,,,2,0,92,34,1,91,J,W,B,F,,m,,,,,,,,,,,,,,,
,,,,,,,,,,,,,,,,10000,2019-06-04_13h33.31.286,Probabilistic Learning,3.1.0,60,,,,,,,,1,0,3,1,1,2,hiragana2.xlsx,hiragana21.xlsx,hiragana22.xlsx,,,,,,,,,,,,,,,,,m,1.256,2,0,92,2,1,91,o,b,C,D,,,,,,,,,,,,,,,,,
,,,,,,,,,,,,,,,,10000,2019-06-04_13h33.31.286,Probabilistic Learning,3.1.0,60,,,,,,,,1,0,3,1,1,2,hiragana2.xlsx,hiragana21.xlsx,hiragana22.xlsx,,,,,,,,,,,,,,,,,m,0.723,2,0,92,23,1,91,J,o,B,C,,m,,,,,,,,,,,,,,,
,,,,,,,,,,,,,,,,10000,2019-06-04_13h33.31.286,Probabilistic Learning,3.1.0,60,,,,,,,,1,0,3,1,1,2,hiragana2.xlsx,hiragana21.xlsx,hiragana22.xlsx,,,,,,,,,,,,,,,,,m,0.706,2,0,92,43,1,91,V,b,e,d,,,,,,,,,,,,,,,,,
,,,,,,,,,,,,,,,,10000,2019-06-04_13h33.31.286,Probabilistic Learning,3.1.0,60,,,,,,,,1,0,3,1,1,2,hiragana2.xlsx,hiragana21.xlsx,hiragana22.xlsx,,,,,,,,,,,,,,,,,m,1.022,2,0,92,37,1,91,W,J,F,B,,c,,,,,,,,,,,,,,,
,,,,,,,,,,,,,,,,10000,2019-06-04_13h33.31.286,Probabilistic Learning,3.1.0,60,,,,,,,,1,0,3,1,1,2,hiragana2.xlsx,hiragana21.xlsx,hiragana22.xlsx,,,,,,,,,,,,,,,,,c,0.989,2,0,92,33,1,91,V,J,E,B,,c,,,,,,,,,,,,,,,
,,,,,,,,,,,,,,,,10000,2019-06-04_13h33.31.286,Probabilistic Learning,3.1.0,60,,,,,,,,1,0,3,1,1,2,hiragana2.xlsx,hiragana21.xlsx,hiragana22.xlsx,,,,,,,,,,,,,,,,,c,0.671,2,0,92,16,1,91,V,s,E,A,m,,,,,,,,,,,,,,,,
,,,,,,,,,,,,,,,,10000,2019-06-04_13h33.31.286,Probabilistic Learning,3.1.0,60,,,,,,,,1,0,3,1,1,2,hiragana2.xlsx,hiragana21.xlsx,hiragana22.xlsx,,,,,,,,,,,,,,,,,c,0.588,2,0,92,0,1,91,s,J,A,B,,,,,,,,,,,,,,,,,
,,,,,,,,,,,,,,,,10000,2019-06-04_13h33.31.286,Probabilistic Learning,3.1.0,60,,,,,,,,1,0,3,1,1,2,hiragana2.xlsx,hiragana21.xlsx,hiragana22.xlsx,,,,,,,,,,,,,,,,,m,0.673,2,0,92,39,1,91,V,o,e,c,,,,,,,,,,,,,,,,,
,,,,,,,,,,,,,,,,10000,2019-06-04_13h33.31.286,Probabilistic Learning,3.1.0,60,,,,,,,,1,0,3,1,1,2,hiragana2.xlsx,hiragana21.xlsx,hiragana22.xlsx,,,,,,,,,,,,,,,,,c,0.723,2,0,92,24,1,91,o,J,C,B,,c,,,,,,,,,,,,,,,
,,,,,,,,,,,,,,,,10000,2019-06-04_13h33.31.286,Probabilistic Learning,3.1.0,60,,,,,,,,1,0,3,1,1,2,hiragana2.xlsx,hiragana21.xlsx,hiragana22.xlsx,,,,,,,,,,,,,,,,,m,0.57,2,0,92,26,1,91,J,b,B,D,,m,,,,,,,,,,,,,,,
,,,,,,,,,,,,,,,,10000,2019-06-04_13h33.31.286,Probabilistic Learning,3.1.0,60,,,,,,,,1,0,3,1,1,2,hiragana2.xlsx,hiragana21.xlsx,hiragana22.xlsx,,,,,,,,,,,,,,,,,c,0.723,2,0,92,6,1,91,s,o,A,C,c,,,,,,,,,,,,,,,,
,,,,,,,,,,,,,,,,10000,2019-06-04_13h33.31.286,Probabilistic Learning,3.1.0,60,,,,,,,,1,0,3,1,1,2,hiragana2.xlsx,hiragana21.xlsx,hiragana22.xlsx,,,,,,,,,,,,,,,,,m,0.554,2,0,92,17,1,91,V,s,E,A,m,,,,,,,,,,,,,,,,
,,,,,,,,,,,,,,,,10000,2019-06-04_13h33.31.286,Probabilistic Learning,3.1.0,60,,,,,,,,1,0,3,1,1,2,hiragana2.xlsx,hiragana21.xlsx,hiragana22.xlsx,,,,,,,,,,,,,,,,,c,0.823,2,0,92,5,1,91,W,V,F,E,,,,,,,,,,,,,,,,,
,,,,,,,,,,,,,,,,10000,2019-06-04_13h33.31.286,Probabilistic Learning,3.1.0,60,,,,,,,,1,0,3,1,1,2,hiragana2.xlsx,hiragana21.xlsx,hiragana22.xlsx,,,,,,,,,,,,,,,,,m,0.807,2,0,92,20,1,91,W,s,F,A,m,,,,,,,,,,,,,,,,
,,,,,,,,,,,,,,,,10000,2019-06-04_13h33.31.286,Probabilistic Learning,3.1.0,60,,,,,,,,1,0,3,1,1,2,hiragana2.xlsx,hiragana21.xlsx,hiragana22.xlsx,,,,,,,,,,,,,,,,,c,0.672,2,0,92,38,1,91,o,V,C,E,,,,,,,,,,,,,,,,,
,,,,,,,,,,,,,,,,10000,2019-06-04_13h33.31.286,Probabilistic Learning,3.1.0,60,,,,,,,,1,0,3,1,1,2,hiragana2.xlsx,hiragana21.xlsx,hiragana22.xlsx,,,,,,,,,,,,,,,,,m,0.537,2,0,92,21,1,91,W,s,F,A,m,,,,,,,,,,,,,,,,
,,,,,,,,,,,,,,,,10000,2019-06-04_13h33.31.286,Probabilistic Learning,3.1.0,60,,,,,,,,1,0,3,1,1,2,hiragana2.xlsx,hiragana21.xlsx,hiragana22.xlsx,,,,,,,,,,,,,,,,,m,0.526,2,0,92,12,1,91,b,s,D,A,m,,,,,,,,,,,,,,,,
,,,,,,,,,,,,,,,,10000,2019-06-04_13h33.31.286,Probabilistic Learning,3.1.0,60,,,,,,,,1,0,3,1,1,2,hiragana2.xlsx,hiragana21.xlsx,hiragana22.xlsx,,,,,,,,,,,,,,,,,m,0.838,2,0,92,27,1,91,J,b,B,D,,m,,,,,,,,,,,,,,,
,,,,,,,,,,,,,,,,10000,2019-06-04_13h33.31.286,Probabilistic Learning,3.1.0,60,,,,,,,,1,0,3,1,1,2,hiragana2.xlsx,hiragana21.xlsx,hiragana22.xlsx,,,,,,,,,,,,,,,,,c,0.529,2,0,92,40,1,91,o,W,c,f,,,,,,,,,,,,,,,,,
,,,,,,,,,,,,,,,,10000,2019-06-04_13h33.31.286,Probabilistic Learning,3.1.0,60,,,,,,,,1,0,3,1,1,2,hiragana2.xlsx,hiragana21.xlsx,hiragana22.xlsx,,,,,,,,,,,,,,,,,m,0.575,2,0,92,45,1,91,W,b,f,d,,,,,,,,,,,,,,,,,
,,,,,,,,,,,,,,,,10000,2019-06-04_13h33.31.286,Probabilistic Learning,3.1.0,60,,,,,,,,1,0,3,1,1,2,hiragana2.xlsx,hiragana21.xlsx,hiragana22.xlsx,,,,,,,,,,,,,,,,,c,0.52,2,0,92,14,1,91,s,V,A,E,c,,,,,,,,,,,,,,,,
,,,,,,,,,,,,,,,,10000,2019-06-04_13h33.31.286,Probabilistic Learning,3.1.0,60,,,,,,,,1,0,3,1,1,2,hiragana2.xlsx,hiragana21.xlsx,hiragana22.xlsx,,,,,,,,,,,,,,,,,c,0.605,2,0,92,29,1,91,b,J,D,B,,c,,,,,,,,,,,,,,,
,,,,,,,,,,,,,,,,10000,2019-06-04_13h33.31.286,Probabilistic Learning,3.1.0,60,,,,,,,,1,0,3,1,1,2,hiragana2.xlsx,hiragana21.xlsx,hiragana22.xlsx,,,,,,,,,,,,,,,,,c,0.469,2,0,92,28,1,91,b,J,D,B,,c,,,,,,,,,,,,,,,
,,,,,,,,,,,,,,,,10000,2019-06-04_13h33.31.286,Probabilistic Learning,3.1.0,60,,,,,,,,1,0,3,1,1,2,hiragana2.xlsx,hiragana21.xlsx,hiragana22.xlsx,,,,,,,,,,,,,,,,,c,0.538,2,0,92,19,1,91,s,W,A,F,c,,,,,,,,,,,,,,,,
,,,,,,,,,,,,,,,,10000,2019-06-04_13h33.31.286,Probabilistic Learning,3.1.0,60,,,,,,,,1,0,3,1,1,2,hiragana2.xlsx,hiragana21.xlsx,hiragana22.xlsx,,,,,,,,,,,,,,,,,m,0.621,2,0,92,41,1,91,W,o,f,c,,,,,,,,,,,,,,,,,
,,,,,,,,,,,,,,,,10000,2019-06-04_13h33.31.286,Probabilistic Learning,3.1.0,60,,,,,,,,1,0,3,1,1,2,hiragana2.xlsx,hiragana21.xlsx,hiragana22.xlsx,,,,,,,,,,,,,,,,,m,0.724,2,0,92,9,1,91,o,s,C,A,m,,,,,,,,,,,,,,,,
,,,,,,,,,,,,,,,,10000,2019-06-04_13h33.31.286,Probabilistic Learning,3.1.0,60,,,,,,,,1,0,3,1,1,2,hiragana2.xlsx,hiragana21.xlsx,hiragana22.xlsx,,,,,,,,,,,,,,,,,c,0.489,2,0,92,7,1,91,s,o,A,C,c,,,,,,,,,,,,,,,,
,,,,,,,,,,,,,,,,10000,2019-06-04_13h33.31.286,Probabilistic Learning,3.1.0,60,,,,,,,,1,0,3,1,1,2,hiragana2.xlsx,hiragana21.xlsx,hiragana22.xlsx,,,,,,,,,,,,,,,,,m,0.966,2,0,92,23,1,91,J,o,B,C,,m,,,,,,,,,,,,,,,
,,,,,,,,,,,,,,,,10000,2019-06-04_13h33.31.286,Probabilistic Learning,3.1.0,60,,,,,,,,1,0,3,1,1,2,hiragana2.xlsx,hiragana21.xlsx,hiragana22.xlsx,,,,,,,,,,,,,,,,,m,0.521,2,0,92,1,1,91,J,s,B,A,,,,,,,,,,,,,,,,,
,,,,,,,,,,,,,,,,10000,2019-06-04_13h33.31.286,Probabilistic Learning,3.1.0,60,,,,,,,,1,0,3,1,1,2,hiragana2.xlsx,hiragana21.xlsx,hiragana22.xlsx,,,,,,,,,,,,,,,,,c,0.469,2,0,92,18,1,91,s,W,A,F,c,,,,,,,,,,,,,,,,
,,,,,,,,,,,,,,,,10000,2019-06-04_13h33.31.286,Probabilistic Learning,3.1.0,60,,,,,,,,1,0,3,1,1,2,hiragana2.xlsx,hiragana21.xlsx,hiragana22.xlsx,,,,,,,,,,,,,,,,,m,0.987,2,0,92,34,1,91,J,W,B,F,,m,,,,,,,,,,,,,,,
,,,,,,,,,,,,,,,,10000,2019-06-04_13h33.31.286,Probabilistic Learning,3.1.0,60,,,,,,,,1,0,3,1,1,2,hiragana2.xlsx,hiragana21.xlsx,hiragana22.xlsx,,,,,,,,,,,,,,,,,c,0.606,2,0,92,11,1,91,s,b,A,D,c,,,,,,,,,,,,,,,,
,,,,,,,,,,,,,,,,10000,2019-06-04_13h33.31.286,Probabilistic Learning,3.1.0,60,,,,,,,,1,0,3,1,1,2,hiragana2.xlsx,hiragana21.xlsx,hiragana22.xlsx,,,,,,,,,,,,,,,,,c,0.439,2,0,92,10,1,91,s,b,A,D,c,,,,,,,,,,,,,,,,
,,,,,,,,,,,,,,,,10000,2019-06-04_13h33.31.286,Probabilistic Learning,3.1.0,60,,,,,,,,1,0,3,1,1,2,hiragana2.xlsx,hiragana21.xlsx,hiragana22.xlsx,,,,,,,,,,,,,,,,,m,0.641,2,0,92,22,1,91,J,o,B,C,,m,,,,,,,,,,,,,,,
,,,,,,,,,,,,,,,,10000,2019-06-04_13h33.31.286,Probabilistic Learning,3.1.0,60,,,,,,,,1,0,3,1,1,2,hiragana2.xlsx,hiragana21.xlsx,hiragana22.xlsx,,,,,,,,,,,,,,,,,m,0.505,2,0,92,8,1,91,o,s,C,A,m,,,,,,,,,,,,,,,,
,,,,,,,,,,,,,,,,10000,2019-06-04_13h33.31.286,Probabilistic Learning,3.1.0,60,,,,,,,,1,0,3,1,1,2,hiragana2.xlsx,hiragana21.xlsx,hiragana22.xlsx,,,,,,,,,,,,,,,,,c,0.973,2,0,92,32,1,91,V,J,E,B,,c,,,,,,,,,,,,,,,
,,,,,,,,,,,,,,,,10000,2019-06-04_13h33.31.286,Probabilistic Learning,3.1.0,60,,,,,,,,1,0,3,1,1,2,hiragana2.xlsx,hiragana21.xlsx,hiragana22.xlsx,,,,,,,,,,,,,,,,,m,0.54,2,0,92,13,1,91,b,s,D,A,m,,,,,,,,,,,,,,,,
,,,,,,,,,,,,,,,,10000,2019-06-04_13h33.31.286,Probabilistic Learning,3.1.0,60,,,,,,,,1,0,3,1,1,2,hiragana2.xlsx,hiragana21.xlsx,hiragana22.xlsx,,,,,,,,,,,,,,,,,m,0.787,2,0,92,31,1,91,J,V,B,E,,m,,,,,,,,,,,,,,,
,,,,,,,,,,,,,,,,10000,2019-06-04_13h33.31.286,Probabilistic Learning,3.1.0,60,,,,,,,,1,0,3,1,1,2,hiragana2.xlsx,hiragana21.xlsx,hiragana22.xlsx,,,,,,,,,,,,,,,,,c,0.673,2,0,92,25,1,91,o,J,C,B,,c,,,,,,,,,,,,,,,
,,,,,,,,,,,,,,,,10000,2019-06-04_13h33.31.286,Probabilistic Learning,3.1.0,60,,,,,,,,1,0,3,1,1,2,hiragana2.xlsx,hiragana21.xlsx,hiragana22.xlsx,,,,,,,,,,,,,,,,,c,0.804,2,0,92,15,1,91,s,V,A,E,c,,,,,,,,,,,,,,,,
,,,,,,,,,,,,,,,,10000,2019-06-04_13h33.31.286,Probabilistic Learning,3.1.0,60,,,,,,,,1,0,3,1,1,2,hiragana2.xlsx,hiragana21.xlsx,hiragana22.xlsx,,,,,,,,,,,,,,,,,m,0.772,2,0,92,30,1,91,J,V,B,E,,m,,,,,,,,,,,,,,,
,,,,,,,,,,,,,,,,10000,2019-06-04_13h33.31.286,Probabilistic Learning,3.1.0,60,,,,,,,,1,0,3,1,1,2,hiragana2.xlsx,hiragana21.xlsx,hiragana22.xlsx,,,,,,,,,,,,,,,,,c,0.807,2,0,92,4,1,91,V,W,E,F,,,,,,,,,,,,,,,,,
,,,,,,,,,,,,,,,,10000,2019-06-04_13h33.31.286,Probabilistic Learning,3.1.0,60,,,,,,,,1,0,3,1,1,2,hiragana2.xlsx,hiragana21.xlsx,hiragana22.xlsx,,,,,,,,,,,,,,,,,m,1.006,2,0,92,35,1,91,J,W,B,F,,m,,,,,,,,,,,,,,,
,,,,,,,,,,,,,,,,10000,2019-06-04_13h33.31.286,Probabilistic Learning,3.1.0,60,,,,,,,,1,0,3,1,1,2,hiragana2.xlsx,hiragana21.xlsx,hiragana22.xlsx,,,,,,,,,,,,,,,,,c,0.788,2,0,92,44,1,91,b,W,d,f,,,,,,,,,,,,,,,,,
,,,,,,,,,,,,,,,,10000,2019-06-04_13h33.31.286,Probabilistic Learning,3.1.0,60,,,,,,,,1,0,3,1,1,2,hiragana2.xlsx,hiragana21.xlsx,hiragana22.xlsx,,,,,,,,,,,,,,,,,c,0.522,2,0,92,42,1,91,b,V,d,e,,,,,,,,,,,,,,,,,
,,,,,,,,,,,,,,,,10000,2019-06-04_13h33.31.286,Probabilistic Learning,3.1.0,60,,,,,,,,1,0,3,1,1,2,hiragana2.xlsx,hiragana21.xlsx,hiragana22.xlsx,,,,,,,,,,,,,,,,,m,0.622,2,0,92,3,1,91,b,o,D,C,,,,,,,,,,,,,,,,,
,,,,,,,,,,,,,,,,10000,2019-06-04_13h33.31.286,Probabilistic Learning,3.1.0,60,,,,,,,,1,0,3,1,1,2,hiragana2.xlsx,hiragana21.xlsx,hiragana22.xlsx,,,,,,,,,,,,,,,,,m,0.973,2,0,92,36,1,91,W,J,F,B,,c,,,,,,,,,,,,,,,
,,,,,,,,,,,,,,,,10000,2019-06-04_13h33.31.286,Probabilistic Learning,3.1.0,60,,,,,,,,1,0,3,1,1,2,hiragana2.xlsx,hiragana21.xlsx,hiragana22.xlsx,,,,,,,,,,,,,,,,,c,1.072,2,0,92,2,1,91,o,b,C,D,,,,,,,,,,,,,,,,,
,,,,,,,,,,,,,,,,10000,2019-06-04_13h33.31.286,Probabilistic Learning,3.1.0,60,,,,,,,,1,0,3,1,1,2,hiragana2.xlsx,hiragana21.xlsx,hiragana22.xlsx,,,,,,,,,,,,,,,,,,,,,,,,,,,,,,,m,12.978,2,28.74,1,0,2,0,1,1,Most Probable, o s b V W J,1,,
,,,,,,,,,,,,,,,,10000,2019-06-04_13h33.31.286,Probabilistic Learning,3.1.0,60,,,,,,,,1,0,3,1,1,2,hiragana2.xlsx,hiragana21.xlsx,hiragana22.xlsx,,,,,,,,,,,,,,,,,,,,,,,,,,,,,,,,,5,5.444,1,0,2,1,1,1,Least Probable, o s b V W J,1,,
,,,,,,,,,,,,,,,,10000,2019-06-04_13h33.31.286,Probabilistic Learning,3.1.0,60,,,,,,,,1,0,3,1,1,2,hiragana2.xlsx,hiragana21.xlsx,hiragana22.xlsx,,,,,,,,,,,,,,,,,,,,,,,,,,,,,,,,,,,,,,,,,,,,c,28.151
,,,,,,,,,,,,,,,,10000,2019-06-04_13h33.31.286,Probabilistic Learning,3.1.0,60,,,c,5.097,m,0,0.604,1,0,3,2,1,2,hiragana3.xlsx,hiragana31.xlsx,hiragana32.xlsx,6,0,180,13,1,179,f,e,c,,c,,,,,,,,,,,,,,,,,,,,,,,,,,,,,,,,,,
,,,,,,,,,,,,,,,,10000,2019-06-04_13h33.31.286,Probabilistic Learning,3.1.0,60,,,,,m,0,0.589,1,0,3,2,1,2,hiragana3.xlsx,hiragana31.xlsx,hiragana32.xlsx,6,0,180,0,1,179,P,t,c,c,,,,,,,,,,,,,,,,,,,,,,,,,,,,,,,,,,,
,,,,,,,,,,,,,,,,10000,2019-06-04_13h33.31.286,Probabilistic Learning,3.1.0,60,,,,,c,0,0.535,1,0,3,2,1,2,hiragana3.xlsx,hiragana31.xlsx,hiragana32.xlsx,6,0,180,25,1,179,q,T,m,,,m,,,,,,,,,,,,,,,,,,,,,,,,,,,,,,,,,
,,,,,,,,,,,,,,,,10000,2019-06-04_13h33.31.286,Probabilistic Learning,3.1.0,60,,,,,m,0,0.54,1,0,3,2,1,2,hiragana3.xlsx,hiragana31.xlsx,hiragana32.xlsx,6,0,180,11,1,179,f,e,c,,c,,,,,,,,,,,,,,,,,,,,,,,,,,,,,,,,,,
,,,,,,,,,,,,,,,,10000,2019-06-04_13h33.31.286,Probabilistic Learning,3.1.0,60,,,,,c,0,0.826,1,0,3,2,1,2,hiragana3.xlsx,hiragana31.xlsx,hiragana32.xlsx,6,0,180,26,1,179,T,q,m,,,c,,,,,,,,,,,,,,,,,,,,,,,,,,,,,,,,,
,,,,,,,,,,,,,,,,10000,2019-06-04_13h33.31.286,Probabilistic Learning,3.1.0,60,,,,,m,1,0.925,1,0,3,2,1,2,hiragana3.xlsx,hiragana31.xlsx,hiragana32.xlsx,6,0,180,15,1,179,e,f,m,,m,,,,,,,,,,,,,,,,,,,,,,,,,,,,,,,,,,
,,,,,,,,,,,,,,,,10000,2019-06-04_13h33.31.286,Probabilistic Learning,3.1.0,60,,,,,m,1,0.869,1,0,3,2,1,2,hiragana3.xlsx,hiragana31.xlsx,hiragana32.xlsx,6,0,180,5,1,179,t,P,m,m,,,,,,,,,,,,,,,,,,,,,,,,,,,,,,,,,,,
,,,,,,,,,,,,,,,,10000,2019-06-04_13h33.31.286,Probabilistic Learning,3.1.0,60,,,,,c,1,0.672,1,0,3,2,1,2,hiragana3.xlsx,hiragana31.xlsx,hiragana32.xlsx,6,0,180,1,1,179,P,t,c,c,,,,,,,,,,,,,,,,,,,,,,,,,,,,,,,,,,,
,,,,,,,,,,,,,,,,10000,2019-06-04_13h33.31.286,Probabilistic Learning,3.1.0,60,,,,,m,1,0.738,1,0,3,2,1,2,hiragana3.xlsx,hiragana31.xlsx,hiragana32.xlsx,6,0,180,19,1,179,f,e,m,,c,,,,,,,,,,,,,,,,,,,,,,,,,,,,,,,,,,
,,,,,,,,,,,,,,,,10000,2019-06-04_13h33.31.286,Probabilistic Learning,3.1.0,60,,,,,m,1,0.805,1,0,3,2,1,2,hiragana3.xlsx,hiragana31.xlsx,hiragana32.xlsx,6,0,180,7,1,179,t,P,m,m,,,,,,,,,,,,,,,,,,,,,,,,,,,,,,,,,,,
,,,,,,,,,,,,,,,,10000,2019-06-04_13h33.31.286,Probabilistic Learning,3.1.0,60,,,,,m,1,0.836,1,0,3,2,1,2,hiragana3.xlsx,hiragana31.xlsx,hiragana32.xlsx,6,0,180,4,1,179,t,P,m,m,,,,,,,,,,,,,,,,,,,,,,,,,,,,,,,,,,,
,,,,,,,,,,,,,,,,10000,2019-06-04_13h33.31.286,Probabilistic Learning,3.1.0,60,,,,,c,0,1.207,1,0,3,2,1,2,hiragana3.xlsx,hiragana31.xlsx,hiragana32.xlsx,6,0,180,27,1,179,T,q,m,,,c,,,,,,,,,,,,,,,,,,,,,,,,,,,,,,,,,
,,,,,,,,,,,,,,,,10000,2019-06-04_13h33.31.286,Probabilistic Learning,3.1.0,60,,,,,m,0,0.555,1,0,3,2,1,2,hiragana3.xlsx,hiragana31.xlsx,hiragana32.xlsx,6,0,180,21,1,179,T,q,c,,,c,,,,,,,,,,,,,,,,,,,,,,,,,,,,,,,,,
,,,,,,,,,,,,,,,,10000,2019-06-04_13h33.31.286,Probabilistic Learning,3.1.0,60,,,,,m,1,1.256,1,0,3,2,1,2,hiragana3.xlsx,hiragana31.xlsx,hiragana32.xlsx,6,0,180,16,1,179,e,f,m,,m,,,,,,,,,,,,,,,,,,,,,,,,,,,,,,,,,,
,,,,,,,,,,,,,,,,10000,2019-06-04_13h33.31.286,Probabilistic Learning,3.1.0,60,,,,,m,0,1.136,1,0,3,2,1,2,hiragana3.xlsx,hiragana31.xlsx,hiragana32.xlsx,6,0,180,29,1,179,q,T,c,,,m,,,,,,,,,,,,,,,,,,,,,,,,,,,,,,,,,
,,,,,,,,,,,,,,,,10000,2019-06-04_13h33.31.286,Probabilistic Learning,3.1.0,60,,,,,m,0,0.806,1,0,3,2,1,2,hiragana3.xlsx,hiragana31.xlsx,hiragana32.xlsx,6,0,180,18,1,179,e,f,c,,m,,,,,,,,,,,,,,,,,,,,,,,,,,,,,,,,,,
,,,,,,,,,,,,,,,,10000,2019-06-04_13h33.31.286,Probabilistic Learning,3.1.0,60,,,,,c,1,0.538,1,0,3,2,1,2,hiragana3.xlsx,hiragana31.xlsx,hiragana32.xlsx,6,0,180,12,1,179,f,e,c,,c,,,,,,,,,,,,,,,,,,,,,,,,,,,,,,,,,,
,,,,,,,,,,,,,,,,10000,2019-06-04_13h33.31.286,Probabilistic Learning,3.1.0,60,,,,,m,1,0.539,1,0,3,2,1,2,hiragana3.xlsx,hiragana31.xlsx,hiragana32.xlsx,6,0,180,14,1,179,e,f,m,,m,,,,,,,,,,,,,,,,,,,,,,,,,,,,,,,,,,
,,,,,,,,,,,,,,,,10000,2019-06-04_13h33.31.286,Probabilistic Learning,3.1.0,60,,,,,c,1,1.311,1,0,3,2,1,2,hiragana3.xlsx,hiragana31.xlsx,hiragana32.xlsx,6,0,180,22,1,179,T,q,c,,,c,,,,,,,,,,,,,,,,,,,,,,,,,,,,,,,,,
,,,,,,,,,,,,,,,,10000,2019-06-04_13h33.31.286,Probabilistic Learning,3.1.0,60,,,,,c,1,0.805,1,0,3,2,1,2,hiragana3.xlsx,hiragana31.xlsx,hiragana32.xlsx,6,0,180,3,1,179,P,t,c,c,,,,,,,,,,,,,,,,,,,,,,,,,,,,,,,,,,,
,,,,,,,,,,,,,,,,10000,2019-06-04_13h33.31.286,Probabilistic Learning,3.1.0,60,,,,,m,1,0.471,1,0,3,2,1,2,hiragana3.xlsx,hiragana31.xlsx,hiragana32.xlsx,6,0,180,6,1,179,t,P,m,m,,,,,,,,,,,,,,,,,,,,,,,,,,,,,,,,,,,
,,,,,,,,,,,,,,,,10000,2019-06-04_13h33.31.286,Probabilistic Learning,3.1.0,60,,,,,m,0,1.122,1,0,3,2,1,2,hiragana3.xlsx,hiragana31.xlsx,hiragana32.xlsx,6,0,180,28,1,179,q,T,c,,,m,,,,,,,,,,,,,,,,,,,,,,,,,,,,,,,,,
,,,,,,,,,,,,,,,,10000,2019-06-04_13h33.31.286,Probabilistic Learning,3.1.0,60,,,,,m,1,0.508,1,0,3,2,1,2,hiragana3.xlsx,hiragana31.xlsx,hiragana32.xlsx,6,0,180,23,1,179,q,T,m,,,m,,,,,,,,,,,,,,,,,,,,,,,,,,,,,,,,,
,,,,,,,,,,,,,,,,10000,2019-06-04_13h33.31.286,Probabilistic Learning,3.1.0,60,,,,,m,1,0.455,1,0,3,2,1,2,hiragana3.xlsx,hiragana31.xlsx,hiragana32.xlsx,6,0,180,24,1,179,q,T,m,,,m,,,,,,,,,,,,,,,,,,,,,,,,,,,,,,,,,
,,,,,,,,,,,,,,,,10000,2019-06-04_13h33.31.286,Probabilistic Learning,3.1.0,60,,,,,m,0,0.576,1,0,3,2,1,2,hiragana3.xlsx,hiragana31.xlsx,hiragana32.xlsx,6,0,180,17,1,179,e,f,c,,m,,,,,,,,,,,,,,,,,,,,,,,,,,,,,,,,,,
,,,,,,,,,,,,,,,,10000,2019-06-04_13h33.31.286,Probabilistic Learning,3.1.0,60,,,,,c,1,0.706,1,0,3,2,1,2,hiragana3.xlsx,hiragana31.xlsx,hiragana32.xlsx,6,0,180,2,1,179,P,t,c,c,,,,,,,,,,,,,,,,,,,,,,,,,,,,,,,,,,,
,,,,,,,,,,,,,,,,10000,2019-06-04_13h33.31.286,Probabilistic Learning,3.1.0,60,,,,,m,0,0.422,1,0,3,2,1,2,hiragana3.xlsx,hiragana31.xlsx,hiragana32.xlsx,6,0,180,9,1,179,t,P,c,m,,,,,,,,,,,,,,,,,,,,,,,,,,,,,,,,,,,
,,,,,,,,,,,,,,,,10000,2019-06-04_13h33.31.286,Probabilistic Learning,3.1.0,60,,,,,c,1,0.906,1,0,3,2,1,2,hiragana3.xlsx,hiragana31.xlsx,hiragana32.xlsx,6,0,180,20,1,179,T,q,c,,,c,,,,,,,,,,,,,,,,,,,,,,,,,,,,,,,,,
,,,,,,,,,,,,,,,,10000,2019-06-04_13h33.31.286,Probabilistic Learning,3.1.0,60,,,,,c,1,0.806,1,0,3,2,1,2,hiragana3.xlsx,hiragana31.xlsx,hiragana32.xlsx,6,0,180,10,1,179,f,e,c,,c,,,,,,,,,,,,,,,,,,,,,,,,,,,,,,,,,,
,,,,,,,,,,,,,,,,10000,2019-06-04_13h33.31.286,Probabilistic Learning,3.1.0,60,,,,,c,0,0.754,1,0,3,2,1,2,hiragana3.xlsx,hiragana31.xlsx,hiragana32.xlsx,6,0,180,8,1,179,P,t,m,c,,,,,,,,,,,,,,,,,,,,,,,,,,,,,,,,,,,
,,,,,,,,,,,,,,,,10000,2019-06-04_13h33.31.286,Probabilistic Learning,3.1.0,60,,,,,m,1,0.522,1,0,3,2,1,2,hiragana3.xlsx,hiragana31.xlsx,hiragana32.xlsx,6,0,180,14,1,179,e,f,m,,m,,,,,,,,,,,,,,,,,,,,,,,,,,,,,,,,,,
,,,,,,,,,,,,,,,,10000,2019-06-04_13h33.31.286,Probabilistic Learning,3.1.0,60,,,,,c,1,1.103,1,0,3,2,1,2,hiragana3.xlsx,hiragana31.xlsx,hiragana32.xlsx,6,0,180,11,1,179,f,e,c,,c,,,,,,,,,,,,,,,,,,,,,,,,,,,,,,,,,,
,,,,,,,,,,,,,,,,10000,2019-06-04_13h33.31.286,Probabilistic Learning,3.1.0,60,,,,,c,1,0.539,1,0,3,2,1,2,hiragana3.xlsx,hiragana31.xlsx,hiragana32.xlsx,6,0,180,10,1,179,f,e,c,,c,,,,,,,,,,,,,,,,,,,,,,,,,,,,,,,,,,
,,,,,,,,,,,,,,,,10000,2019-06-04_13h33.31.286,Probabilistic Learning,3.1.0,60,,,,,c,1,0.44,1,0,3,2,1,2,hiragana3.xlsx,hiragana31.xlsx,hiragana32.xlsx,6,0,180,12,1,179,f,e,c,,c,,,,,,,,,,,,,,,,,,,,,,,,,,,,,,,,,,
,,,,,,,,,,,,,,,,10000,2019-06-04_13h33.31.286,Probabilistic Learning,3.1.0,60,,,,,m,0,0.558,1,0,3,2,1,2,hiragana3.xlsx,hiragana31.xlsx,hiragana32.xlsx,6,0,180,29,1,179,q,T,c,,,m,,,,,,,,,,,,,,,,,,,,,,,,,,,,,,,,,
,,,,,,,,,,,,,,,,10000,2019-06-04_13h33.31.286,Probabilistic Learning,3.1.0,60,,,,,c,1,0.607,1,0,3,2,1,2,hiragana3.xlsx,hiragana31.xlsx,hiragana32.xlsx,6,0,180,3,1,179,P,t,c,c,,,,,,,,,,,,,,,,,,,,,,,,,,,,,,,,,,,
,,,,,,,,,,,,,,,,10000,2019-06-04_13h33.31.286,Probabilistic Learning,3.1.0,60,,,,,m,1,0.639,1,0,3,2,1,2,hiragana3.xlsx,hiragana31.xlsx,hiragana32.xlsx,6,0,180,25,1,179,q,T,m,,,m,,,,,,,,,,,,,,,,,,,,,,,,,,,,,,,,,
,,,,,,,,,,,,,,,,10000,2019-06-04_13h33.31.286,Probabilistic Learning,3.1.0,60,,,,,c,0,0.556,1,0,3,2,1,2,hiragana3.xlsx,hiragana31.xlsx,hiragana32.xlsx,6,0,180,8,1,179,P,t,m,c,,,,,,,,,,,,,,,,,,,,,,,,,,,,,,,,,,,
,,,,,,,,,,,,,,,,10000,2019-06-04_13h33.31.286,Probabilistic Learning,3.1.0,60,,,,,m,1,0.488,1,0,3,2,1,2,hiragana3.xlsx,hiragana31.xlsx,hiragana32.xlsx,6,0,180,4,1,179,t,P,m,m,,,,,,,,,,,,,,,,,,,,,,,,,,,,,,,,,,,
,,,,,,,,,,,,,,,,10000,2019-06-04_13h33.31.286,Probabilistic Learning,3.1.0,60,,,,,m,1,0.605,1,0,3,2,1,2,hiragana3.xlsx,hiragana31.xlsx,hiragana32.xlsx,6,0,180,24,1,179,q,T,m,,,m,,,,,,,,,,,,,,,,,,,,,,,,,,,,,,,,,
,,,,,,,,,,,,,,,,10000,2019-06-04_13h33.31.286,Probabilistic Learning,3.1.0,60,,,,,m,1,0.545,1,0,3,2,1,2,hiragana3.xlsx,hiragana31.xlsx,hiragana32.xlsx,6,0,180,5,1,179,t,P,m,m,,,,,,,,,,,,,,,,,,,,,,,,,,,,,,,,,,,
,,,,,,,,,,,,,,,,10000,2019-06-04_13h33.31.286,Probabilistic Learning,3.1.0,60,,,,,c,1,0.504,1,0,3,2,1,2,hiragana3.xlsx,hiragana31.xlsx,hiragana32.xlsx,6,0,180,21,1,179,T,q,c,,,c,,,,,,,,,,,,,,,,,,,,,,,,,,,,,,,,,
,,,,,,,,,,,,,,,,10000,2019-06-04_13h33.31.286,Probabilistic Learning,3.1.0,60,,,,,m,1,0.605,1,0,3,2,1,2,hiragana3.xlsx,hiragana31.xlsx,hiragana32.xlsx,6,0,180,16,1,179,e,f,m,,m,,,,,,,,,,,,,,,,,,,,,,,,,,,,,,,,,,
,,,,,,,,,,,,,,,,10000,2019-06-04_13h33.31.286,Probabilistic Learning,3.1.0,60,,,,,m,1,0.522,1,0,3,2,1,2,hiragana3.xlsx,hiragana31.xlsx,hiragana32.xlsx,6,0,180,15,1,179,e,f,m,,m,,,,,,,,,,,,,,,,,,,,,,,,,,,,,,,,,,
,,,,,,,,,,,,,,,,10000,2019-06-04_13h33.31.286,Probabilistic Learning,3.1.0,60,,,,,m,0,0.544,1,0,3,2,1,2,hiragana3.xlsx,hiragana31.xlsx,hiragana32.xlsx,6,0,180,18,1,179,e,f,c,,m,,,,,,,,,,,,,,,,,,,,,,,,,,,,,,,,,,
,,,,,,,,,,,,,,,,10000,2019-06-04_13h33.31.286,Probabilistic Learning,3.1.0,60,,,,,m,0,0.289,1,0,3,2,1,2,hiragana3.xlsx,hiragana31.xlsx,hiragana32.xlsx,6,0,180,28,1,179,q,T,c,,,m,,,,,,,,,,,,,,,,,,,,,,,,,,,,,,,,,
,,,,,,,,,,,,,,,,10000,2019-06-04_13h33.31.286,Probabilistic Learning,3.1.0,60,,,,,m,1,0.592,1,0,3,2,1,2,hiragana3.xlsx,hiragana31.xlsx,hiragana32.xlsx,6,0,180,6,1,179,t,P,m,m,,,,,,,,,,,,,,,,,,,,,,,,,,,,,,,,,,,
,,,,,,,,,,,,,,,,10000,2019-06-04_13h33.31.286,Probabilistic Learning,3.1.0,60,,,,,c,0,0.622,1,0,3,2,1,2,hiragana3.xlsx,hiragana31.xlsx,hiragana32.xlsx,6,0,180,27,1,179,T,q,m,,,c,,,,,,,,,,,,,,,,,,,,,,,,,,,,,,,,,
,,,,,,,,,,,,,,,,10000,2019-06-04_13h33.31.286,Probabilistic Learning,3.1.0,60,,,,,c,1,0.673,1,0,3,2,1,2,hiragana3.xlsx,hiragana31.xlsx,hiragana32.xlsx,6,0,180,2,1,179,P,t,c,c,,,,,,,,,,,,,,,,,,,,,,,,,,,,,,,,,,,
,,,,,,,,,,,,,,,,10000,2019-06-04_13h33.31.286,Probabilistic Learning,3.1.0,60,,,,,m,0,0.638,1,0,3,2,1,2,hiragana3.xlsx,hiragana31.xlsx,hiragana32.xlsx,6,0,180,17,1,179,e,f,c,,m,,,,,,,,,,,,,,,,,,,,,,,,,,,,,,,,,,
,,,,,,,,,,,,,,,,10000,2019-06-04_13h33.31.286,Probabilistic Learning,3.1.0,60,,,,,c,0,0.555,1,0,3,2,1,2,hiragana3.xlsx,hiragana31.xlsx,hiragana32.xlsx,6,0,180,23,1,179,q,T,m,,,m,,,,,,,,,,,,,,,,,,,,,,,,,,,,,,,,,
,,,,,,,,,,,,,,,,10000,2019-06-04_13h33.31.286,Probabilistic Learning,3.1.0,60,,,,,c,1,0.622,1,0,3,2,1,2,hiragana3.xlsx,hiragana31.xlsx,hiragana32.xlsx,6,0,180,13,1,179,f,e,c,,c,,,,,,,,,,,,,,,,,,,,,,,,,,,,,,,,,,
,,,,,,,,,,,,,,,,10000,2019-06-04_13h33.31.286,Probabilistic Learning,3.1.0,60,,,,,c,1,0.77,1,0,3,2,1,2,hiragana3.xlsx,hiragana31.xlsx,hiragana32.xlsx,6,0,180,0,1,179,P,t,c,c,,,,,,,,,,,,,,,,,,,,,,,,,,,,,,,,,,,
,,,,,,,,,,,,,,,,10000,2019-06-04_13h33.31.286,Probabilistic Learning,3.1.0,60,,,,,m,0,0.437,1,0,3,2,1,2,hiragana3.xlsx,hiragana31.xlsx,hiragana32.xlsx,6,0,180,22,1,179,T,q,c,,,c,,,,,,,,,,,,,,,,,,,,,,,,,,,,,,,,,
,,,,,,,,,,,,,,,,10000,2019-06-04_13h33.31.286,Probabilistic Learning,3.1.0,60,,,,,m,0,0.48,1,0,3,2,1,2,hiragana3.xlsx,hiragana31.xlsx,hiragana32.xlsx,6,0,180,20,1,179,T,q,c,,,c,,,,,,,,,,,,,,,,,,,,,,,,,,,,,,,,,
,,,,,,,,,,,,,,,,10000,2019-06-04_13h33.31.286,Probabilistic Learning,3.1.0,60,,,,,c,0,0.64,1,0,3,2,1,2,hiragana3.xlsx,hiragana31.xlsx,hiragana32.xlsx,6,0,180,19,1,179,f,e,m,,c,,,,,,,,,,,,,,,,,,,,,,,,,,,,,,,,,,
,,,,,,,,,,,,,,,,10000,2019-06-04_13h33.31.286,Probabilistic Learning,3.1.0,60,,,,,m,1,0.688,1,0,3,2,1,2,hiragana3.xlsx,hiragana31.xlsx,hiragana32.xlsx,6,0,180,7,1,179,t,P,m,m,,,,,,,,,,,,,,,,,,,,,,,,,,,,,,,,,,,
,,,,,,,,,,,,,,,,10000,2019-06-04_13h33.31.286,Probabilistic Learning,3.1.0,60,,,,,m,1,0.488,1,0,3,2,1,2,hiragana3.xlsx,hiragana31.xlsx,hiragana32.xlsx,6,0,180,26,1,179,T,q,m,,,c,,,,,,,,,,,,,,,,,,,,,,,,,,,,,,,,,
,,,,,,,,,,,,,,,,10000,2019-06-04_13h33.31.286,Probabilistic Learning,3.1.0,60,,,,,c,1,0.655,1,0,3,2,1,2,hiragana3.xlsx,hiragana31.xlsx,hiragana32.xlsx,6,0,180,1,1,179,P,t,c,c,,,,,,,,,,,,,,,,,,,,,,,,,,,,,,,,,,,
,,,,,,,,,,,,,,,,10000,2019-06-04_13h33.31.286,Probabilistic Learning,3.1.0,60,,,,,m,0,0.574,1,0,3,2,1,2,hiragana3.xlsx,hiragana31.xlsx,hiragana32.xlsx,,,,,,,,,,,,,m,3.352,m,10.016,c,1.122,2,0,92,42,1,91,e,T,d,e,,,,,,,,,,,,,,,,,
,,,,,,,,,,,,,,,,10000,2019-06-04_13h33.31.286,Probabilistic Learning,3.1.0,60,,,,,,,,1,0,3,2,1,2,hiragana3.xlsx,hiragana31.xlsx,hiragana32.xlsx,,,,,,,,,,,,,,,,,m,0.956,2,0,92,22,1,91,t,f,B,C,,m,,,,,,,,,,,,,,,
,,,,,,,,,,,,,,,,10000,2019-06-04_13h33.31.286,Probabilistic Learning,3.1.0,60,,,,,,,,1,0,3,2,1,2,hiragana3.xlsx,hiragana31.xlsx,hiragana32.xlsx,,,,,,,,,,,,,,,,,c,0.621,2,0,92,38,1,91,f,T,C,E,,,,,,,,,,,,,,,,,
,,,,,,,,,,,,,,,,10000,2019-06-04_13h33.31.286,Probabilistic Learning,3.1.0,60,,,,,,,,1,0,3,2,1,2,hiragana3.xlsx,hiragana31.xlsx,hiragana32.xlsx,,,,,,,,,,,,,,,,,c,0.704,2,0,92,19,1,91,P,q,A,F,c,,,,,,,,,,,,,,,,
,,,,,,,,,,,,,,,,10000,2019-06-04_13h33.31.286,Probabilistic Learning,3.1.0,60,,,,,,,,1,0,3,2,1,2,hiragana3.xlsx,hiragana31.xlsx,hiragana32.xlsx,,,,,,,,,,,,,,,,,m,0.957,2,0,92,21,1,91,q,P,F,A,m,,,,,,,,,,,,,,,,
,,,,,,,,,,,,,,,,10000,2019-06-04_13h33.31.286,Probabilistic Learning,3.1.0,60,,,,,,,,1,0,3,2,1,2,hiragana3.xlsx,hiragana31.xlsx,hiragana32.xlsx,,,,,,,,,,,,,,,,,m,0.888,2,0,92,8,1,91,f,P,C,A,m,,,,,,,,,,,,,,,,
,,,,,,,,,,,,,,,,10000,2019-06-04_13h33.31.286,Probabilistic Learning,3.1.0,60,,,,,,,,1,0,3,2,1,2,hiragana3.xlsx,hiragana31.xlsx,hiragana32.xlsx,,,,,,,,,,,,,,,,,c,0.953,2,0,92,40,1,91,f,q,c,f,,,,,,,,,,,,,,,,,
,,,,,,,,,,,,,,,,10000,2019-06-04_13h33.31.286,Probabilistic Learning,3.1.0,60,,,,,,,,1,0,3,2,1,2,hiragana3.xlsx,hiragana31.xlsx,hiragana32.xlsx,,,,,,,,,,,,,,,,,m,0.557,2,0,92,23,1,91,t,f,B,C,,m,,,,,,,,,,,,,,,
,,,,,,,,,,,,,,,,10000,2019-06-04_13h33.31.286,Probabilistic Learning,3.1.0,60,,,,,,,,1,0,3,2,1,2,hiragana3.xlsx,hiragana31.xlsx,hiragana32.xlsx,,,,,,,,,,,,,,,,,,,2,0,92,4,1,91,T,q,E,F,,,,,,,,,,,,,,,,,
,,,,,,,,,,,,,,,,10000,2019-06-04_13h33.31.286,Probabilistic Learning,3.1.0,60,,,,,,,,1,0,3,2,1,2,hiragana3.xlsx,hiragana31.xlsx,hiragana32.xlsx,,,,,,,,,,,,,,,,,c,1.475,2,0,92,26,1,91,t,e,B,D,,m,,,,,,,,,,,,,,,
,,,,,,,,,,,,,,,,10000,2019-06-04_13h33.31.286,Probabilistic Learning,3.1.0,60,,,,,,,,1,0,3,2,1,2,hiragana3.xlsx,hiragana31.xlsx,hiragana32.xlsx,,,,,,,,,,,,,,,,,c,1.373,2,0,92,25,1,91,f,t,C,B,,c,,,,,,,,,,,,,,,
,,,,,,,,,,,,,,,,10000,2019-06-04_13h33.31.286,Probabilistic Learning,3.1.0,60,,,,,,,,1,0,3,2,1,2,hiragana3.xlsx,hiragana31.xlsx,hiragana32.xlsx,,,,,,,,,,,,,,,,,c,0.862,2,0,92,0,1,91,P,t,A,B,,,,,,,,,,,,,,,,,
,,,,,,,,,,,,,,,,10000,2019-06-04_13h33.31.286,Probabilistic Learning,3.1.0,60,,,,,,,,1,0,3,2,1,2,hiragana3.xlsx,hiragana31.xlsx,hiragana32.xlsx,,,,,,,,,,,,,,,,,m,0.742,2,0,92,41,1,91,q,f,f,c,,,,,,,,,,,,,,,,,
,,,,,,,,,,,,,,,,10000,2019-06-04_13h33.31.286,Probabilistic Learning,3.1.0,60,,,,,,,,1,0,3,2,1,2,hiragana3.xlsx,hiragana31.xlsx,hiragana32.xlsx,,,,,,,,,,,,,,,,,c,0.624,2,0,92,11,1,91,P,e,A,D,c,,,,,,,,,,,,,,,,
,,,,,,,,,,,,,,,,10000,2019-06-04_13h33.31.286,Probabilistic Learning,3.1.0,60,,,,,,,,1,0,3,2,1,2,hiragana3.xlsx,hiragana31.xlsx,hiragana32.xlsx,,,,,,,,,,,,,,,,,c,0.672,2,0,92,18,1,91,P,q,A,F,c,,,,,,,,,,,,,,,,
,,,,,,,,,,,,,,,,10000,2019-06-04_13h33.31.286,Probabilistic Learning,3.1.0,60,,,,,,,,1,0,3,2,1,2,hiragana3.xlsx,hiragana31.xlsx,hiragana32.xlsx,,,,,,,,,,,,,,,,,c,0.589,2,0,92,2,1,91,f,e,C,D,,,,,,,,,,,,,,,,,
,,,,,,,,,,,,,,,,10000,2019-06-04_13h33.31.286,Probabilistic Learning,3.1.0,60,,,,,,,,1,0,3,2,1,2,hiragana3.xlsx,hiragana31.xlsx,hiragana32.xlsx,,,,,,,,,,,,,,,,,m,0.622,2,0,92,20,1,91,q,P,F,A,m,,,,,,,,,,,,,,,,
,,,,,,,,,,,,,,,,10000,2019-06-04_13h33.31.286,Probabilistic Learning,3.1.0,60,,,,,,,,1,0,3,2,1,2,hiragana3.xlsx,hiragana31.xlsx,hiragana32.xlsx,,,,,,,,,,,,,,,,,m,1.321,2,0,92,45,1,91,q,e,f,d,,,,,,,,,,,,,,,,,
,,,,,,,,,,,,,,,,10000,2019-06-04_13h33.31.286,Probabilistic Learning,3.1.0,60,,,,,,,,1,0,3,2,1,2,hiragana3.xlsx,hiragana31.xlsx,hiragana32.xlsx,,,,,,,,,,,,,,,,,m,1.074,2,0,92,6,1,91,P,f,A,C,c,,,,,,,,,,,,,,,,
,,,,,,,,,,,,,,,,10000,2019-06-04_13h33.31.286,Probabilistic Learning,3.1.0,60,,,,,,,,1,0,3,2,1,2,hiragana3.xlsx,hiragana31.xlsx,hiragana32.xlsx,,,,,,,,,,,,,,,,,m,0.907,2,0,92,31,1,91,t,T,B,E,,m,,,,,,,,,,,,,,,
,,,,,,,,,,,,,,,,10000,2019-06-04_13h33.31.286,Probabilistic Learning,3.1.0,60,,,,,,,,1,0,3,2,1,2,hiragana3.xlsx,hiragana31.xlsx,hiragana32.xlsx,,,,,,,,,,,,,,,,,m,0.904,2,0,92,17,1,91,T,P,E,A,m,,,,,,,,,,,,,,,,
,,,,,,,,,,,,,,,,10000,2019-06-04_13h33.31.286,Probabilistic Learning,3.1.0,60,,,,,,,,1,0,3,2,1,2,hiragana3.xlsx,hiragana31.xlsx,hiragana32.xlsx,,,,,,,,,,,,,,,,,,,2,0,92,37,1,91,q,t,F,B,,c,,,,,,,,,,,,,,,
,,,,,,,,,,,,,,,,10000,2019-06-04_13h33.31.286,Probabilistic Learning,3.1.0,60,,,,,,,,1,0,3,2,1,2,hiragana3.xlsx,hiragana31.xlsx,hiragana32.xlsx,,,,,,,,,,,,,,,,,c,0.84,2,0,92,33,1,91,T,t,E,B,,c,,,,,,,,,,,,,,,
,,,,,,,,,,,,,,,,10000,2019-06-04_13h33.31.286,Probabilistic Learning,3.1.0,60,,,,,,,,1,0,3,2,1,2,hiragana3.xlsx,hiragana31.xlsx,hiragana32.xlsx,,,,,,,,,,,,,,,,,,,2,0,92,36,1,91,q,t,F,B,,c,,,,,,,,,,,,,,,
,,,,,,,,,,,,,,,,10000,2019-06-04_13h33.31.286,Probabilistic Learning,3.1.0,60,,,,,,,,1,0,3,2,1,2,hiragana3.xlsx,hiragana31.xlsx,hiragana32.xlsx,,,,,,,,,,,,,,,,,m,0.595,2,0,92,1,1,91,t,P,B,A,,,,,,,,,,,,,,,,,
,,,,,,,,,,,,,,,,10000,2019-06-04_13h33.31.286,Probabilistic Learning,3.1.0,60,,,,,,,,1,0,3,2,1,2,hiragana3.xlsx,hiragana31.xlsx,hiragana32.xlsx,,,,,,,,,,,,,,,,,m,0.889,2,0,92,16,1,91,T,P,E,A,m,,,,,,,,,,,,,,,,
,,,,,,,,,,,,,,,,10000,2019-06-04_13h33.31.286,Probabilistic Learning,3.1.0,60,,,,,,,,1,0,3,2,1,2,hiragana3.xlsx,hiragana31.xlsx,hiragana32.xlsx,,,,,,,,,,,,,,,,,c,0.672,2,0,92,15,1,91,P,T,A,E,c,,,,,,,,,,,,,,,,
,,,,,,,,,,,,,,,,10000,2019-06-04_13h33.31.286,Probabilistic Learning,3.1.0,60,,,,,,,,1,0,3,2,1,2,hiragana3.xlsx,hiragana31.xlsx,hiragana32.xlsx,,,,,,,,,,,,,,,,,m,0.507,2,0,92,12,1,91,e,P,D,A,m,,,,,,,,,,,,,,,,
,,,,,,,,,,,,,,,,10000,2019-06-04_13h33.31.286,Probabilistic Learning,3.1.0,60,,,,,,,,1,0,3,2,1,2,hiragana3.xlsx,hiragana31.xlsx,hiragana32.xlsx,,,,,,,,,,,,,,,,,m,1.122,2,0,92,29,1,91,e,t,D,B,,c,,,,,,,,,,,,,,,
,,,,,,,,,,,,,,,,10000,2019-06-04_13h33.31.286,Probabilistic Learning,3.1.0,60,,,,,,,,1,0,3,2,1,2,hiragana3.xlsx,hiragana31.xlsx,hiragana32.xlsx,,,,,,,,,,,,,,,,,c,0.805,2,0,92,43,1,91,T,e,e,d,,,,,,,,,,,,,,,,,
,,,,,,,,,,,,,,,,10000,2019-06-04_13h33.31.286,Probabilistic Learning,3.1.0,60,,,,,,,,1,0,3,2,1,2,hiragana3.xlsx,hiragana31.xlsx,hiragana32.xlsx,,,,,,,,,,,,,,,,,m,0.623,2,0,92,10,1,91,P,e,A,D,c,,,,,,,,,,,,,,,,
,,,,,,,,,,,,,,,,10000,2019-06-04_13h33.31.286,Probabilistic Learning,3.1.0,60,,,,,,,,1,0,3,2,1,2,hiragana3.xlsx,hiragana31.xlsx,hiragana32.xlsx,,,,,,,,,,,,,,,,,c,0.886,2,0,92,9,1,91,f,P,C,A,m,,,,,,,,,,,,,,,,
,,,,,,,,,,,,,,,,10000,2019-06-04_13h33.31.286,Probabilistic Learning,3.1.0,60,,,,,,,,1,0,3,2,1,2,hiragana3.xlsx,hiragana31.xlsx,hiragana32.xlsx,,,,,,,,,,,,,,,,,m,1.021,2,0,92,30,1,91,t,T,B,E,,m,,,,,,,,,,,,,,,
,,,,,,,,,,,,,,,,10000,2019-06-04_13h33.31.286,Probabilistic Learning,3.1.0,60,,,,,,,,1,0,3,2,1,2,hiragana3.xlsx,hiragana31.xlsx,hiragana32.xlsx,,,,,,,,,,,,,,,,,c,0.622,2,0,92,7,1,91,P,f,A,C,c,,,,,,,,,,,,,,,,
,,,,,,,,,,,,,,,,10000,2019-06-04_13h33.31.286,Probabilistic Learning,3.1.0,60,,,,,,,,1,0,3,2,1,2,hiragana3.xlsx,hiragana31.xlsx,hiragana32.xlsx,,,,,,,,,,,,,,,,,m,0.744,2,0,92,5,1,91,q,T,F,E,,,,,,,,,,,,,,,,,
,,,,,,,,,,,,,,,,10000,2019-06-04_13h33.31.286,Probabilistic Learning,3.1.0,60,,,,,,,,1,0,3,2,1,2,hiragana3.xlsx,hiragana31.xlsx,hiragana32.xlsx,,,,,,,,,,,,,,,,,c,1.056,2,0,92,34,1,91,t,q,B,F,,m,,,,,,,,,,,,,,,
,,,,,,,,,,,,,,,,10000,2019-06-04_13h33.31.286,Probabilistic Learning,3.1.0,60,,,,,,,,1,0,3,2,1,2,hiragana3.xlsx,hiragana31.xlsx,hiragana32.xlsx,,,,,,,,,,,,,,,,,m,0.623,2,0,92,3,1,91,e,f,D,C,,,,,,,,,,,,,,,,,
,,,,,,,,,,,,,,,,10000,2019-06-04_13h33.31.286,Probabilistic Learning,3.1.0,60,,,,,,,,1,0,3,2,1,2,hiragana3.xlsx,hiragana31.xlsx,hiragana32.xlsx,,,,,,,,,,,,,,,,,m,1.387,2,0,92,35,1,91,t,q,B,F,,m,,,,,,,,,,,,,,,
,,,,,,,,,,,,,,,,10000,2019-06-04_13h33.31.286,Probabilistic Learning,3.1.0,60,,,,,,,,1,0,3,2,1,2,hiragana3.xlsx,hiragana31.xlsx,hiragana32.xlsx,,,,,,,,,,,,,,,,,c,1.037,2,0,92,39,1,91,T,f,e,c,,,,,,,,,,,,,,,,,
,,,,,,,,,,,,,,,,10000,2019-06-04_13h33.31.286,Probabilistic Learning,3.1.0,60,,,,,,,,1,0,3,2,1,2,hiragana3.xlsx,hiragana31.xlsx,hiragana32.xlsx,,,,,,,,,,,,,,,,,,,2,0,92,27,1,91,t,e,B,D,,m,,,,,,,,,,,,,,,
,,,,,,,,,,,,,,,,10000,2019-06-04_13h33.31.286,Probabilistic Learning,3.1.0,60,,,,,,,,1,0,3,2,1,2,hiragana3.xlsx,hiragana31.xlsx,hiragana32.xlsx,,,,,,,,,,,,,,,,,c,0.771,2,0,92,32,1,91,T,t,E,B,,c,,,,,,,,,,,,,,,
,,,,,,,,,,,,,,,,10000,2019-06-04_13h33.31.286,Probabilistic Learning,3.1.0,60,,,,,,,,1,0,3,2,1,2,hiragana3.xlsx,hiragana31.xlsx,hiragana32.xlsx,,,,,,,,,,,,,,,,,c,1.021,2,0,92,14,1,91,P,T,A,E,c,,,,,,,,,,,,,,,,
,,,,,,,,,,,,,,,,10000,2019-06-04_13h33.31.286,Probabilistic Learning,3.1.0,60,,,,,,,,1,0,3,2,1,2,hiragana3.xlsx,hiragana31.xlsx,hiragana32.xlsx,,,,,,,,,,,,,,,,,m,0.938,2,0,92,28,1,91,e,t,D,B,,c,,,,,,,,,,,,,,,
,,,,,,,,,,,,,,,,10000,2019-06-04_13h33.31.286,Probabilistic Learning,3.1.0,60,,,,,,,,1,0,3,2,1,2,hiragana3.xlsx,hiragana31.xlsx,hiragana32.xlsx,,,,,,,,,,,,,,,,,m,1.088,2,0,92,44,1,91,e,q,d,f,,,,,,,,,,,,,,,,,
,,,,,,,,,,,,,,,,10000,2019-06-04_13h33.31.286,Probabilistic Learning,3.1.0,60,,,,,,,,1,0,3,2,1,2,hiragana3.xlsx,hiragana31.xlsx,hiragana32.xlsx,,,,,,,,,,,,,,,,,c,1.023,2,0,92,24,1,91,f,t,C,B,,c,,,,,,,,,,,,,,,
,,,,,,,,,,,,,,,,10000,2019-06-04_13h33.31.286,Probabilistic Learning,3.1.0,60,,,,,,,,1,0,3,2,1,2,hiragana3.xlsx,hiragana31.xlsx,hiragana32.xlsx,,,,,,,,,,,,,,,,,m,0.589,2,0,92,13,1,91,e,P,D,A,m,,,,,,,,,,,,,,,,
,,,,,,,,,,,,,,,,10000,2019-06-04_13h33.31.286,Probabilistic Learning,3.1.0,60,,,,,,,,1,0,3,2,1,2,hiragana3.xlsx,hiragana31.xlsx,hiragana32.xlsx,,,,,,,,,,,,,,,,,c,0.641,2,0,92,14,1,91,P,T,A,E,c,,,,,,,,,,,,,,,,
,,,,,,,,,,,,,,,,10000,2019-06-04_13h33.31.286,Probabilistic Learning,3.1.0,60,,,,,,,,1,0,3,2,1,2,hiragana3.xlsx,hiragana31.xlsx,hiragana32.xlsx,,,,,,,,,,,,,,,,,c,0.539,2,0,92,0,1,91,P,t,A,B,,,,,,,,,,,,,,,,,
,,,,,,,,,,,,,,,,10000,2019-06-04_13h33.31.286,Probabilistic Learning,3.1.0,60,,,,,,,,1,0,3,2,1,2,hiragana3.xlsx,hiragana31.xlsx,hiragana32.xlsx,,,,,,,,,,,,,,,,,m,0.671,2,0,92,20,1,91,q,P,F,A,m,,,,,,,,,,,,,,,,
,,,,,,,,,,,,,,,,10000,2019-06-04_13h33.31.286,Probabilistic Learning,3.1.0,60,,,,,,,,1,0,3,2,1,2,hiragana3.xlsx,hiragana31.xlsx,hiragana32.xlsx,,,,,,,,,,,,,,,,,m,0.821,2,0,92,17,1,91,T,P,E,A,m,,,,,,,,,,,,,,,,
,,,,,,,,,,,,,,,,10000,2019-06-04_13h33.31.286,Probabilistic Learning,3.1.0,60,,,,,,,,1,0,3,2,1,2,hiragana3.xlsx,hiragana31.xlsx,hiragana32.xlsx,,,,,,,,,,,,,,,,,c,0.671,2,0,92,24,1,91,f,t,C,B,,c,,,,,,,,,,,,,,,
,,,,,,,,,,,,,,,,10000,2019-06-04_13h33.31.286,Probabilistic Learning,3.1.0,60,,,,,,,,1,0,3,2,1,2,hiragana3.xlsx,hiragana31.xlsx,hiragana32.xlsx,,,,,,,,,,,,,,,,,m,0.604,2,0,92,13,1,91,e,P,D,A,m,,,,,,,,,,,,,,,,
,,,,,,,,,,,,,,,,10000,2019-06-04_13h33.31.286,Probabilistic Learning,3.1.0,60,,,,,,,,1,0,3,2,1,2,hiragana3.xlsx,hiragana31.xlsx,hiragana32.xlsx,,,,,,,,,,,,,,,,,c,0.621,2,0,92,7,1,91,P,f,A,C,c,,,,,,,,,,,,,,,,
,,,,,,,,,,,,,,,,10000,2019-06-04_13h33.31.286,Probabilistic Learning,3.1.0,60,,,,,,,,1,0,3,2,1,2,hiragana3.xlsx,hiragana31.xlsx,hiragana32.xlsx,,,,,,,,,,,,,,,,,m,0.655,2,0,92,35,1,91,t,q,B,F,,m,,,,,,,,,,,,,,,
,,,,,,,,,,,,,,,,10000,2019-06-04_13h33.31.286,Probabilistic Learning,3.1.0,60,,,,,,,,1,0,3,2,1,2,hiragana3.xlsx,hiragana31.xlsx,hiragana32.xlsx,,,,,,,,,,,,,,,,,m,0.606,2,0,92,42,1,91,e,T,d,e,,,,,,,,,,,,,,,,,
,,,,,,,,,,,,,,,,10000,2019-06-04_13h33.31.286,Probabilistic Learning,3.1.0,60,,,,,,,,1,0,3,2,1,2,hiragana3.xlsx,hiragana31.xlsx,hiragana32.xlsx,,,,,,,,,,,,,,,,,c,0.706,2,0,92,45,1,91,q,e,f,d,,,,,,,,,,,,,,,,,
,,,,,,,,,,,,,,,,10000,2019-06-04_13h33.31.286,Probabilistic Learning,3.1.0,60,,,,,,,,1,0,3,2,1,2,hiragana3.xlsx,hiragana31.xlsx,hiragana32.xlsx,,,,,,,,,,,,,,,,,c,0.69,2,0,92,4,1,91,T,q,E,F,,,,,,,,,,,,,,,,,
,,,,,,,,,,,,,,,,10000,2019-06-04_13h33.31.286,Probabilistic Learning,3.1.0,60,,,,,,,,1,0,3,2,1,2,hiragana3.xlsx,hiragana31.xlsx,hiragana32.xlsx,,,,,,,,,,,,,,,,,c,0.706,2,0,92,15,1,91,P,T,A,E,c,,,,,,,,,,,,,,,,
,,,,,,,,,,,,,,,,10000,2019-06-04_13h33.31.286,Probabilistic Learning,3.1.0,60,,,,,,,,1,0,3,2,1,2,hiragana3.xlsx,hiragana31.xlsx,hiragana32.xlsx,,,,,,,,,,,,,,,,,c,0.615,2,0,92,32,1,91,T,t,E,B,,c,,,,,,,,,,,,,,,
,,,,,,,,,,,,,,,,10000,2019-06-04_13h33.31.286,Probabilistic Learning,3.1.0,60,,,,,,,,1,0,3,2,1,2,hiragana3.xlsx,hiragana31.xlsx,hiragana32.xlsx,,,,,,,,,,,,,,,,,m,0.589,2,0,92,12,1,91,e,P,D,A,m,,,,,,,,,,,,,,,,
,,,,,,,,,,,,,,,,10000,2019-06-04_13h33.31.286,Probabilistic Learning,3.1.0,60,,,,,,,,1,0,3,2,1,2,hiragana3.xlsx,hiragana31.xlsx,hiragana32.xlsx,,,,,,,,,,,,,,,,,c,0.553,2,0,92,19,1,91,P,q,A,F,c,,,,,,,,,,,,,,,,
,,,,,,,,,,,,,,,,10000,2019-06-04_13h33.31.286,Probabilistic Learning,3.1.0,60,,,,,,,,1,0,3,2,1,2,hiragana3.xlsx,hiragana31.xlsx,hiragana32.xlsx,,,,,,,,,,,,,,,,,c,0.775,2,0,92,39,1,91,T,f,e,c,,,,,,,,,,,,,,,,,
,,,,,,,,,,,,,,,,10000,2019-06-04_13h33.31.286,Probabilistic Learning,3.1.0,60,,,,,,,,1,0,3,2,1,2,hiragana3.xlsx,hiragana31.xlsx,hiragana32.xlsx,,,,,,,,,,,,,,,,,,,2,0,92,26,1,91,t,e,B,D,,m,,,,,,,,,,,,,,,
,,,,,,,,,,,,,,,,10000,2019-06-04_13h33.31.286,Probabilistic Learning,3.1.0,60,,,,,,,,1,0,3,2,1,2,hiragana3.xlsx,hiragana31.xlsx,hiragana32.xlsx,,,,,,,,,,,,,,,,,m,0.872,2,0,92,34,1,91,t,q,B,F,,m,,,,,,,,,,,,,,,
,,,,,,,,,,,,,,,,10000,2019-06-04_13h33.31.286,Probabilistic Learning,3.1.0,60,,,,,,,,1,0,3,2,1,2,hiragana3.xlsx,hiragana31.xlsx,hiragana32.xlsx,,,,,,,,,,,,,,,,,m,1.089,2,0,92,28,1,91,e,t,D,B,,c,,,,,,,,,,,,,,,
,,,,,,,,,,,,,,,,10000,2019-06-04_13h33.31.286,Probabilistic Learning,3.1.0,60,,,,,,,,1,0,3,2,1,2,hiragana3.xlsx,hiragana31.xlsx,hiragana32.xlsx,,,,,,,,,,,,,,,,,m,0.655,2,0,92,22,1,91,t,f,B,C,,m,,,,,,,,,,,,,,,
,,,,,,,,,,,,,,,,10000,2019-06-04_13h33.31.286,Probabilistic Learning,3.1.0,60,,,,,,,,1,0,3,2,1,2,hiragana3.xlsx,hiragana31.xlsx,hiragana32.xlsx,,,,,,,,,,,,,,,,,c,1.273,2,0,92,37,1,91,q,t,F,B,,c,,,,,,,,,,,,,,,
,,,,,,,,,,,,,,,,10000,2019-06-04_13h33.31.286,Probabilistic Learning,3.1.0,60,,,,,,,,1,0,3,2,1,2,hiragana3.xlsx,hiragana31.xlsx,hiragana32.xlsx,,,,,,,,,,,,,,,,,c,0.705,2,0,92,43,1,91,T,e,e,d,,,,,,,,,,,,,,,,,
,,,,,,,,,,,,,,,,10000,2019-06-04_13h33.31.286,Probabilistic Learning,3.1.0,60,,,,,,,,1,0,3,2,1,2,hiragana3.xlsx,hiragana31.xlsx,hiragana32.xlsx,,,,,,,,,,,,,,,,,c,0.889,2,0,92,38,1,91,f,T,C,E,,,,,,,,,,,,,,,,,
,,,,,,,,,,,,,,,,10000,2019-06-04_13h33.31.286,Probabilistic Learning,3.1.0,60,,,,,,,,1,0,3,2,1,2,hiragana3.xlsx,hiragana31.xlsx,hiragana32.xlsx,,,,,,,,,,,,,,,,,m,0.774,2,0,92,9,1,91,f,P,C,A,m,,,,,,,,,,,,,,,,
,,,,,,,,,,,,,,,,10000,2019-06-04_13h33.31.286,Probabilistic Learning,3.1.0,60,,,,,,,,1,0,3,2,1,2,hiragana3.xlsx,hiragana31.xlsx,hiragana32.xlsx,,,,,,,,,,,,,,,,,m,0.493,2,0,92,21,1,91,q,P,F,A,m,,,,,,,,,,,,,,,,
,,,,,,,,,,,,,,,,10000,2019-06-04_13h33.31.286,Probabilistic Learning,3.1.0,60,,,,,,,,1,0,3,2,1,2,hiragana3.xlsx,hiragana31.xlsx,hiragana32.xlsx,,,,,,,,,,,,,,,,,c,0.523,2,0,92,6,1,91,P,f,A,C,c,,,,,,,,,,,,,,,,
,,,,,,,,,,,,,,,,10000,2019-06-04_13h33.31.286,Probabilistic Learning,3.1.0,60,,,,,,,,1,0,3,2,1,2,hiragana3.xlsx,hiragana31.xlsx,hiragana32.xlsx,,,,,,,,,,,,,,,,,,,2,0,92,16,1,91,T,P,E,A,m,,,,,,,,,,,,,,,,
,,,,,,,,,,,,,,,,10000,2019-06-04_13h33.31.286,Probabilistic Learning,3.1.0,60,,,,,,,,1,0,3,2,1,2,hiragana3.xlsx,hiragana31.xlsx,hiragana32.xlsx,,,,,,,,,,,,,,,,,m,0.954,2,0,92,3,1,91,e,f,D,C,,,,,,,,,,,,,,,,,
,,,,,,,,,,,,,,,,10000,2019-06-04_13h33.31.286,Probabilistic Learning,3.1.0,60,,,,,,,,1,0,3,2,1,2,hiragana3.xlsx,hiragana31.xlsx,hiragana32.xlsx,,,,,,,,,,,,,,,,,c,0.606,2,0,92,11,1,91,P,e,A,D,c,,,,,,,,,,,,,,,,
,,,,,,,,,,,,,,,,10000,2019-06-04_13h33.31.286,Probabilistic Learning,3.1.0,60,,,,,,,,1,0,3,2,1,2,hiragana3.xlsx,hiragana31.xlsx,hiragana32.xlsx,,,,,,,,,,,,,,,,,c,0.655,2,0,92,25,1,91,f,t,C,B,,c,,,,,,,,,,,,,,,
,,,,,,,,,,,,,,,,10000,2019-06-04_13h33.31.286,Probabilistic Learning,3.1.0,60,,,,,,,,1,0,3,2,1,2,hiragana3.xlsx,hiragana31.xlsx,hiragana32.xlsx,,,,,,,,,,,,,,,,,m,0.605,2,0,92,23,1,91,t,f,B,C,,m,,,,,,,,,,,,,,,
,,,,,,,,,,,,,,,,10000,2019-06-04_13h33.31.286,Probabilistic Learning,3.1.0,60,,,,,,,,1,0,3,2,1,2,hiragana3.xlsx,hiragana31.xlsx,hiragana32.xlsx,,,,,,,,,,,,,,,,,c,0.778,2,0,92,40,1,91,f,q,c,f,,,,,,,,,,,,,,,,,
,,,,,,,,,,,,,,,,10000,2019-06-04_13h33.31.286,Probabilistic Learning,3.1.0,60,,,,,,,,1,0,3,2,1,2,hiragana3.xlsx,hiragana31.xlsx,hiragana32.xlsx,,,,,,,,,,,,,,,,,c,1.07,2,0,92,33,1,91,T,t,E,B,,c,,,,,,,,,,,,,,,
,,,,,,,,,,,,,,,,10000,2019-06-04_13h33.31.286,Probabilistic Learning,3.1.0,60,,,,,,,,1,0,3,2,1,2,hiragana3.xlsx,hiragana31.xlsx,hiragana32.xlsx,,,,,,,,,,,,,,,,,m,0.639,2,0,92,31,1,91,t,T,B,E,,m,,,,,,,,,,,,,,,
,,,,,,,,,,,,,,,,10000,2019-06-04_13h33.31.286,Probabilistic Learning,3.1.0,60,,,,,,,,1,0,3,2,1,2,hiragana3.xlsx,hiragana31.xlsx,hiragana32.xlsx,,,,,,,,,,,,,,,,,,,2,0,92,41,1,91,q,f,f,c,,,,,,,,,,,,,,,,,
,,,,,,,,,,,,,,,,10000,2019-06-04_13h33.31.286,Probabilistic Learning,3.1.0,60,,,,,,,,1,0,3,2,1,2,hiragana3.xlsx,hiragana31.xlsx,hiragana32.xlsx,,,,,,,,,,,,,,,,,m,0.788,2,0,92,5,1,91,q,T,F,E,,,,,,,,,,,,,,,,,
,,,,,,,,,,,,,,,,10000,2019-06-04_13h33.31.286,Probabilistic Learning,3.1.0,60,,,,,,,,1,0,3,2,1,2,hiragana3.xlsx,hiragana31.xlsx,hiragana32.xlsx,,,,,,,,,,,,,,,,,m,0.651,2,0,92,8,1,91,f,P,C,A,m,,,,,,,,,,,,,,,,
,,,,,,,,,,,,,,,,10000,2019-06-04_13h33.31.286,Probabilistic Learning,3.1.0,60,,,,,,,,1,0,3,2,1,2,hiragana3.xlsx,hiragana31.xlsx,hiragana32.xlsx,,,,,,,,,,,,,,,,,m,1.138,2,0,92,29,1,91,e,t,D,B,,c,,,,,,,,,,,,,,,
,,,,,,,,,,,,,,,,10000,2019-06-04_13h33.31.286,Probabilistic Learning,3.1.0,60,,,,,,,,1,0,3,2,1,2,hiragana3.xlsx,hiragana31.xlsx,hiragana32.xlsx,,,,,,,,,,,,,,,,,c,0.841,2,0,92,36,1,91,q,t,F,B,,c,,,,,,,,,,,,,,,
,,,,,,,,,,,,,,,,10000,2019-06-04_13h33.31.286,Probabilistic Learning,3.1.0,60,,,,,,,,1,0,3,2,1,2,hiragana3.xlsx,hiragana31.xlsx,hiragana32.xlsx,,,,,,,,,,,,,,,,,c,0.703,2,0,92,10,1,91,P,e,A,D,c,,,,,,,,,,,,,,,,
,,,,,,,,,,,,,,,,10000,2019-06-04_13h33.31.286,Probabilistic Learning,3.1.0,60,,,,,,,,1,0,3,2,1,2,hiragana3.xlsx,hiragana31.xlsx,hiragana32.xlsx,,,,,,,,,,,,,,,,,m,0.572,2,0,92,30,1,91,t,T,B,E,,m,,,,,,,,,,,,,,,
,,,,,,,,,,,,,,,,10000,2019-06-04_13h33.31.286,Probabilistic Learning,3.1.0,60,,,,,,,,1,0,3,2,1,2,hiragana3.xlsx,hiragana31.xlsx,hiragana32.xlsx,,,,,,,,,,,,,,,,,c,0.637,2,0,92,2,1,91,f,e,C,D,,,,,,,,,,,,,,,,,
,,,,,,,,,,,,,,,,10000,2019-06-04_13h33.31.286,Probabilistic Learning,3.1.0,60,,,,,,,,1,0,3,2,1,2,hiragana3.xlsx,hiragana31.xlsx,hiragana32.xlsx,,,,,,,,,,,,,,,,,c,1.154,2,0,92,44,1,91,e,q,d,f,,,,,,,,,,,,,,,,,
,,,,,,,,,,,,,,,,10000,2019-06-04_13h33.31.286,Probabilistic Learning,3.1.0,60,,,,,,,,1,0,3,2,1,2,hiragana3.xlsx,hiragana31.xlsx,hiragana32.xlsx,,,,,,,,,,,,,,,,,c,1.138,2,0,92,27,1,91,t,e,B,D,,m,,,,,,,,,,,,,,,
,,,,,,,,,,,,,,,,10000,2019-06-04_13h33.31.286,Probabilistic Learning,3.1.0,60,,,,,,,,1,0,3,2,1,2,hiragana3.xlsx,hiragana31.xlsx,hiragana32.xlsx,,,,,,,,,,,,,,,,,m,0.702,2,0,92,1,1,91,t,P,B,A,,,,,,,,,,,,,,,,,
,,,,,,,,,,,,,,,,10000,2019-06-04_13h33.31.286,Probabilistic Learning,3.1.0,60,,,,,,,,1,0,3,2,1,2,hiragana3.xlsx,hiragana31.xlsx,hiragana32.xlsx,,,,,,,,,,,,,,,,,c,1.219,2,0,92,18,1,91,P,q,A,F,c,,,,,,,,,,,,,,,,
,,,,,,,,,,,,,,,,10000,2019-06-04_13h33.31.286,Probabilistic Learning,3.1.0,60,,,,,,,,1,0,3,2,1,2,hiragana3.xlsx,hiragana31.xlsx,hiragana32.xlsx,,,,,,,,,,,,,,,,,,,,,,,,,,,,,,,c,2.426,1,7.219,1,0,2,0,1,1,Most Probable,P t f e T q,1,,
,,,,,,,,,,,,,,,,10000,2019-06-04_13h33.31.286,Probabilistic Learning,3.1.0,60,,,,,,,,1,0,3,2,1,2,hiragana3.xlsx,hiragana31.xlsx,hiragana32.xlsx,,,,,,,,,,,,,,,,,,,,,,,,,,,,,,,,,6,1.71,1,0,2,1,1,1,Least Probable,P t f e T q,1,,
,,,,,,,,,,,,,,,,10000,2019-06-04_13h33.31.286,Probabilistic Learning,3.1.0,60,,,,,,,,1,0,3,2,1,2,hiragana3.xlsx,hiragana31.xlsx,hiragana32.xlsx,,,,,,,,,,,,,,,,,,,,,,,,,,,,,,,,,,,,,,,,,,,,m,2.074
,,,,,,,,,,,,,,,,10000,2019-06-04_13h33.31.286,Probabilistic Learning,3.1.0,60,,,m,5.28,,0,,1,0,3,0,1,2,hiragana1.xlsx,hiragana11.xlsx,hiragana12.xlsx,6,0,180,6,1,179,a,A,m,m,,,,,,,,,,,,,,,,,,,,,,,,,,,,,,,,,,,
,,,,,,,,,,,,,,,,10000,2019-06-04_13h33.31.286,Probabilistic Learning,3.1.0,60,,,,,,0,,1,0,3,0,1,2,hiragana1.xlsx,hiragana11.xlsx,hiragana12.xlsx,6,0,180,13,1,179,O,d,c,,c,,,,,,,,,,,,,,,,,,,,,,,,,,,,,,,,,,
,,,,,,,,,,,,,,,,10000,2019-06-04_13h33.31.286,Probabilistic Learning,3.1.0,60,,,,,,0,,1,0,3,0,1,2,hiragana1.xlsx,hiragana11.xlsx,hiragana12.xlsx,6,0,180,26,1,179,I,L,m,,,c,,,,,,,,,,,,,,,,,,,,,,,,,,,,,,,,,
,,,,,,,,,,,,,,,,10000,2019-06-04_13h33.31.286,Probabilistic Learning,3.1.0,60,,,,,,0,,1,0,3,0,1,2,hiragana1.xlsx,hiragana11.xlsx,hiragana12.xlsx,6,0,180,23,1,179,L,I,m,,,m,,,,,,,,,,,,,,,,,,,,,,,,,,,,,,,,,
,,,,,,,,,,,,,,,,10000,2019-06-04_13h33.31.286,Probabilistic Learning,3.1.0,60,,,,,m,1,0.439,1,0,3,0,1,2,hiragana1.xlsx,hiragana11.xlsx,hiragana12.xlsx,6,0,180,7,1,179,a,A,m,m,,,,,,,,,,,,,,,,,,,,,,,,,,,,,,,,,,,
,,,,,,,,,,,,,,,,10000,2019-06-04_13h33.31.286,Probabilistic Learning,3.1.0,60,,,,,m,1,0.421,1,0,3,0,1,2,hiragana1.xlsx,hiragana11.xlsx,hiragana12.xlsx,6,0,180,5,1,179,a,A,m,m,,,,,,,,,,,,,,,,,,,,,,,,,,,,,,,,,,,
,,,,,,,,,,,,,,,,10000,2019-06-04_13h33.31.286,Probabilistic Learning,3.1.0,60,,,,,m,0,0.319,1,0,3,0,1,2,hiragana1.xlsx,hiragana11.xlsx,hiragana12.xlsx,6,0,180,1,1,179,A,a,c,c,,,,,,,,,,,,,,,,,,,,,,,,,,,,,,,,,,,
,,,,,,,,,,,,,,,,10000,2019-06-04_13h33.31.286,Probabilistic Learning,3.1.0,60,,,,,m,1,0.385,1,0,3,0,1,2,hiragana1.xlsx,hiragana11.xlsx,hiragana12.xlsx,6,0,180,27,1,179,I,L,m,,,c,,,,,,,,,,,,,,,,,,,,,,,,,,,,,,,,,
,,,,,,,,,,,,,,,,10000,2019-06-04_13h33.31.286,Probabilistic Learning,3.1.0,60,,,,,m,1,0.406,1,0,3,0,1,2,hiragana1.xlsx,hiragana11.xlsx,hiragana12.xlsx,6,0,180,19,1,179,O,d,m,,c,,,,,,,,,,,,,,,,,,,,,,,,,,,,,,,,,,
,,,,,,,,,,,,,,,,10000,2019-06-04_13h33.31.286,Probabilistic Learning,3.1.0,60,,,,,m,0,0.271,1,0,3,0,1,2,hiragana1.xlsx,hiragana11.xlsx,hiragana12.xlsx,6,0,180,18,1,179,d,O,c,,m,,,,,,,,,,,,,,,,,,,,,,,,,,,,,,,,,,
,,,,,,,,,,,,,,,,10000,2019-06-04_13h33.31.286,Probabilistic Learning,3.1.0,60,,,,,m,1,0.288,1,0,3,0,1,2,hiragana1.xlsx,hiragana11.xlsx,hiragana12.xlsx,6,0,180,16,1,179,d,O,m,,m,,,,,,,,,,,,,,,,,,,,,,,,,,,,,,,,,,
,,,,,,,,,,,,,,,,10000,2019-06-04_13h33.31.286,Probabilistic Learning,3.1.0,60,,,,,m,0,0.304,1,0,3,0,1,2,hiragana1.xlsx,hiragana11.xlsx,hiragana12.xlsx,6,0,180,9,1,179,a,A,c,m,,,,,,,,,,,,,,,,,,,,,,,,,,,,,,,,,,,
,,,,,,,,,,,,,,,,10000,2019-06-04_13h33.31.286,Probabilistic Learning,3.1.0,60,,,,,m,1,0.289,1,0,3,0,1,2,hiragana1.xlsx,hiragana11.xlsx,hiragana12.xlsx,6,0,180,24,1,179,L,I,m,,,m,,,,,,,,,,,,,,,,,,,,,,,,,,,,,,,,,
,,,,,,,,,,,,,,,,10000,2019-06-04_13h33.31.286,Probabilistic Learning,3.1.0,60,,,,,m,1,0.306,1,0,3,0,1,2,hiragana1.xlsx,hiragana11.xlsx,hiragana12.xlsx,6,0,180,8,1,179,A,a,m,c,,,,,,,,,,,,,,,,,,,,,,,,,,,,,,,,,,,
,,,,,,,,,,,,,,,,10000,2019-06-04_13h33.31.286,Probabilistic Learning,3.1.0,60,,,,,m,1,0.255,1,0,3,0,1,2,hiragana1.xlsx,hiragana11.xlsx,hiragana12.xlsx,6,0,180,25,1,179,L,I,m,,,m,,,,,,,,,,,,,,,,,,,,,,,,,,,,,,,,,
,,,,,,,,,,,,,,,,10000,2019-06-04_13h33.31.286,Probabilistic Learning,3.1.0,60,,,,,,0,,1,0,3,0,1,2,hiragana1.xlsx,hiragana11.xlsx,hiragana12.xlsx,6,0,180,4,1,179,a,A,m,m,,,,,,,,,,,,,,,,,,,,,,,,,,,,,,,,,,,
,,,,,,,,,,,,,,,,10000,2019-06-04_13h33.31.286,Probabilistic Learning,3.1.0,60,,,,,m,0,0.356,1,0,3,0,1,2,hiragana1.xlsx,hiragana11.xlsx,hiragana12.xlsx,6,0,180,20,1,179,I,L,c,,,c,,,,,,,,,,,,,,,,,,,,,,,,,,,,,,,,,
,,,,,,,,,,,,,,,,10000,2019-06-04_13h33.31.286,Probabilistic Learning,3.1.0,60,,,,,m,0,0.356,1,0,3,0,1,2,hiragana1.xlsx,hiragana11.xlsx,hiragana12.xlsx,6,0,180,0,1,179,A,a,c,c,,,,,,,,,,,,,,,,,,,,,,,,,,,,,,,,,,,
,,,,,,,,,,,,,,,,10000,2019-06-04_13h33.31.286,Probabilistic Learning,3.1.0,60,,,,,m,0,0.156,1,0,3,0,1,2,hiragana1.xlsx,hiragana11.xlsx,hiragana12.xlsx,6,0,180,10,1,179,O,d,c,,c,,,,,,,,,,,,,,,,,,,,,,,,,,,,,,,,,,
,,,,,,,,,,,,,,,,10000,2019-06-04_13h33.31.286,Probabilistic Learning,3.1.0,60,,,,,m,0,0.187,1,0,3,0,1,2,hiragana1.xlsx,hiragana11.xlsx,hiragana12.xlsx,6,0,180,22,1,179,I,L,c,,,c,,,,,,,,,,,,,,,,,,,,,,,,,,,,,,,,,
,,,,,,,,,,,,,,,,10000,2019-06-04_13h33.31.286,Probabilistic Learning,3.1.0,60,,,,,m,0,1.137,1,0,3,0,1,2,hiragana1.xlsx,hiragana11.xlsx,hiragana12.xlsx,6,0,180,11,1,179,O,d,c,,c,,,,,,,,,,,,,,,,,,,,,,,,,,,,,,,,,,
,,,,,,,,,,,,,,,,10000,2019-06-04_13h33.31.286,Probabilistic Learning,3.1.0,60,,,,,m,0,0.387,1,0,3,0,1,2,hiragana1.xlsx,hiragana11.xlsx,hiragana12.xlsx,6,0,180,29,1,179,L,I,c,,,m,,,,,,,,,,,,,,,,,,,,,,,,,,,,,,,,,
,,,,,,,,,,,,,,,,10000,2019-06-04_13h33.31.286,Probabilistic Learning,3.1.0,60,,,,,m,0,0.422,1,0,3,0,1,2,hiragana1.xlsx,hiragana11.xlsx,hiragana12.xlsx,6,0,180,21,1,179,I,L,c,,,c,,,,,,,,,,,,,,,,,,,,,,,,,,,,,,,,,
,,,,,,,,,,,,,,,,10000,2019-06-04_13h33.31.286,Probabilistic Learning,3.1.0,60,,,,,m,1,0.286,1,0,3,0,1,2,hiragana1.xlsx,hiragana11.xlsx,hiragana12.xlsx,6,0,180,14,1,179,d,O,m,,m,,,,,,,,,,,,,,,,,,,,,,,,,,,,,,,,,,
,,,,,,,,,,,,,,,,10000,2019-06-04_13h33.31.286,Probabilistic Learning,3.1.0,60,,,,,,0,,1,0,3,0,1,2,hiragana1.xlsx,hiragana11.xlsx,hiragana12.xlsx,6,0,180,17,1,179,d,O,c,,m,,,,,,,,,,,,,,,,,,,,,,,,,,,,,,,,,,
,,,,,,,,,,,,,,,,10000,2019-06-04_13h33.31.286,Probabilistic Learning,3.1.0,60,,,,,,0,,1,0,3,0,1,2,hiragana1.xlsx,hiragana11.xlsx,hiragana12.xlsx,6,0,180,15,1,179,d,O,m,,m,,,,,,,,,,,,,,,,,,,,,,,,,,,,,,,,,,
,,,,,,,,,,,,,,,,10000,2019-06-04_13h33.31.286,Probabilistic Learning,3.1.0,60,,,,,,0,,1,0,3,0,1,2,hiragana1.xlsx,hiragana11.xlsx,hiragana12.xlsx,6,0,180,3,1,179,A,a,c,c,,,,,,,,,,,,,,,,,,,,,,,,,,,,,,,,,,,
,,,,,,,,,,,,,,,,10000,2019-06-04_13h33.31.286,Probabilistic Learning,3.1.0,60,,,,,,0,,1,0,3,0,1,2,hiragana1.xlsx,hiragana11.xlsx,hiragana12.xlsx,6,0,180,12,1,179,O,d,c,,c,,,,,,,,,,,,,,,,,,,,,,,,,,,,,,,,,,
,,,,,,,,,,,,,,,,10000,2019-06-04_13h33.31.286,Probabilistic Learning,3.1.0,60,,,,,,0,,1,0,3,0,1,2,hiragana1.xlsx,hiragana11.xlsx,hiragana12.xlsx,6,0,180,2,1,179,A,a,c,c,,,,,,,,,,,,,,,,,,,,,,,,,,,,,,,,,,,
,,,,,,,,,,,,,,,,10000,2019-06-04_13h33.31.286,Probabilistic Learning,3.1.0,60,,,,,,0,,1,0,3,0,1,2,hiragana1.xlsx,hiragana11.xlsx,hiragana12.xlsx,6,0,180,28,1,179,L,I,c,,,m,,,,,,,,,,,,,,,,,,,,,,,,,,,,,,,,,
,,,,,,,,,,,,,,,,10000,2019-06-04_13h33.31.286,Probabilistic Learning,3.1.0,60,,,,,,0,,1,0,3,0,1,2,hiragana1.xlsx,hiragana11.xlsx,hiragana12.xlsx,6,0,180,12,1,179,O,d,c,,c,,,,,,,,,,,,,,,,,,,,,,,,,,,,,,,,,,
,,,,,,,,,,,,,,,,10000,2019-06-04_13h33.31.286,Probabilistic Learning,3.1.0,60,,,,,,0,,1,0,3,0,1,2,hiragana1.xlsx,hiragana11.xlsx,hiragana12.xlsx,6,0,180,3,1,179,A,a,c,c,,,,,,,,,,,,,,,,,,,,,,,,,,,,,,,,,,,
,,,,,,,,,,,,,,,,10000,2019-06-04_13h33.31.286,Probabilistic Learning,3.1.0,60,,,,,,0,,1,0,3,0,1,2,hiragana1.xlsx,hiragana11.xlsx,hiragana12.xlsx,6,0,180,6,1,179,a,A,m,m,,,,,,,,,,,,,,,,,,,,,,,,,,,,,,,,,,,
,,,,,,,,,,,,,,,,10000,2019-06-04_13h33.31.286,Probabilistic Learning,3.1.0,60,,,,,,0,,1,0,3,0,1,2,hiragana1.xlsx,hiragana11.xlsx,hiragana12.xlsx,6,0,180,0,1,179,A,a,c,c,,,,,,,,,,,,,,,,,,,,,,,,,,,,,,,,,,,
,,,,,,,,,,,,,,,,10000,2019-06-04_13h33.31.286,Probabilistic Learning,3.1.0,60,,,,,,0,,1,0,3,0,1,2,hiragana1.xlsx,hiragana11.xlsx,hiragana12.xlsx,6,0,180,24,1,179,L,I,m,,,m,,,,,,,,,,,,,,,,,,,,,,,,,,,,,,,,,
,,,,,,,,,,,,,,,,10000,2019-06-04_13h33.31.286,Probabilistic Learning,3.1.0,60,,,,,,0,,1,0,3,0,1,2,hiragana1.xlsx,hiragana11.xlsx,hiragana12.xlsx,6,0,180,9,1,179,a,A,c,m,,,,,,,,,,,,,,,,,,,,,,,,,,,,,,,,,,,
,,,,,,,,,,,,,,,,10000,2019-06-04_13h33.31.286,Probabilistic Learning,3.1.0,60,,,,,,0,,1,0,3,0,1,2,hiragana1.xlsx,hiragana11.xlsx,hiragana12.xlsx,6,0,180,2,1,179,A,a,c,c,,,,,,,,,,,,,,,,,,,,,,,,,,,,,,,,,,,
,,,,,,,,,,,,,,,,10000,2019-06-04_13h33.31.286,Probabilistic Learning,3.1.0,60,,,,,,0,,1,0,3,0,1,2,hiragana1.xlsx,hiragana11.xlsx,hiragana12.xlsx,6,0,180,22,1,179,I,L,c,,,c,,,,,,,,,,,,,,,,,,,,,,,,,,,,,,,,,
,,,,,,,,,,,,,,,,10000,2019-06-04_13h33.31.286,Probabilistic Learning,3.1.0,60,,,,,,0,,1,0,3,0,1,2,hiragana1.xlsx,hiragana11.xlsx,hiragana12.xlsx,6,0,180,28,1,179,L,I,c,,,m,,,,,,,,,,,,,,,,,,,,,,,,,,,,,,,,,
,,,,,,,,,,,,,,,,10000,2019-06-04_13h33.31.286,Probabilistic Learning,3.1.0,60,,,,,,0,,1,0,3,0,1,2,hiragana1.xlsx,hiragana11.xlsx,hiragana12.xlsx,6,0,180,4,1,179,a,A,m,m,,,,,,,,,,,,,,,,,,,,,,,,,,,,,,,,,,,
,,,,,,,,,,,,,,,,10000,2019-06-04_13h33.31.286,Probabilistic Learning,3.1.0,60,,,,,,0,,1,0,3,0,1,2,hiragana1.xlsx,hiragana11.xlsx,hiragana12.xlsx,6,0,180,19,1,179,O,d,m,,c,,,,,,,,,,,,,,,,,,,,,,,,,,,,,,,,,,
,,,,,,,,,,,,,,,,10000,2019-06-04_13h33.31.286,Probabilistic Learning,3.1.0,60,,,,,,0,,1,0,3,0,1,2,hiragana1.xlsx,hiragana11.xlsx,hiragana12.xlsx,6,0,180,26,1,179,I,L,m,,,c,,,,,,,,,,,,,,,,,,,,,,,,,,,,,,,,,
,,,,,,,,,,,,,,,,10000,2019-06-04_13h33.31.286,Probabilistic Learning,3.1.0,60,,,,,,0,,1,0,3,0,1,2,hiragana1.xlsx,hiragana11.xlsx,hiragana12.xlsx,6,0,180,17,1,179,d,O,c,,m,,,,,,,,,,,,,,,,,,,,,,,,,,,,,,,,,,
,,,,,,,,,,,,,,,,10000,2019-06-04_13h33.31.286,Probabilistic Learning,3.1.0,60,,,,,,0,,1,0,3,0,1,2,hiragana1.xlsx,hiragana11.xlsx,hiragana12.xlsx,6,0,180,13,1,179,O,d,c,,c,,,,,,,,,,,,,,,,,,,,,,,,,,,,,,,,,,
,,,,,,,,,,,,,,,,10000,2019-06-04_13h33.31.286,Probabilistic Learning,3.1.0,60,,,,,,0,,1,0,3,0,1,2,hiragana1.xlsx,hiragana11.xlsx,hiragana12.xlsx,6,0,180,7,1,179,a,A,m,m,,,,,,,,,,,,,,,,,,,,,,,,,,,,,,,,,,,
,,,,,,,,,,,,,,,,10000,2019-06-04_13h33.31.286,Probabilistic Learning,3.1.0,60,,,,,,0,,1,0,3,0,1,2,hiragana1.xlsx,hiragana11.xlsx,hiragana12.xlsx,6,0,180,29,1,179,L,I,c,,,m,,,,,,,,,,,,,,,,,,,,,,,,,,,,,,,,,
,,,,,,,,,,,,,,,,10000,2019-06-04_13h33.31.286,Probabilistic Learning,3.1.0,60,,,,,,0,,1,0,3,0,1,2,hiragana1.xlsx,hiragana11.xlsx,hiragana12.xlsx,6,0,180,10,1,179,O,d,c,,c,,,,,,,,,,,,,,,,,,,,,,,,,,,,,,,,,,
,,,,,,,,,,,,,,,,10000,2019-06-04_13h33.31.286,Probabilistic Learning,3.1.0,60,,,,,,0,,1,0,3,0,1,2,hiragana1.xlsx,hiragana11.xlsx,hiragana12.xlsx,6,0,180,15,1,179,d,O,m,,m,,,,,,,,,,,,,,,,,,,,,,,,,,,,,,,,,,
,,,,,,,,,,,,,,,,10000,2019-06-04_13h33.31.286,Probabilistic Learning,3.1.0,60,,,,,,0,,1,0,3,0,1,2,hiragana1.xlsx,hiragana11.xlsx,hiragana12.xlsx,6,0,180,14,1,179,d,O,m,,m,,,,,,,,,,,,,,,,,,,,,,,,,,,,,,,,,,
,,,,,,,,,,,,,,,,10000,2019-06-04_13h33.31.286,Probabilistic Learning,3.1.0,60,,,,,,0,,1,0,3,0,1,2,hiragana1.xlsx,hiragana11.xlsx,hiragana12.xlsx,6,0,180,18,1,179,d,O,c,,m,,,,,,,,,,,,,,,,,,,,,,,,,,,,,,,,,,
,,,,,,,,,,,,,,,,10000,2019-06-04_13h33.31.286,Probabilistic Learning,3.1.0,60,,,,,,0,,1,0,3,0,1,2,hiragana1.xlsx,hiragana11.xlsx,hiragana12.xlsx,6,0,180,16,1,179,d,O,m,,m,,,,,,,,,,,,,,,,,,,,,,,,,,,,,,,,,,
,,,,,,,,,,,,,,,,10000,2019-06-04_13h33.31.286,Probabilistic Learning,3.1.0,60,,,,,,0,,1,0,3,0,1,2,hiragana1.xlsx,hiragana11.xlsx,hiragana12.xlsx,6,0,180,20,1,179,I,L,c,,,c,,,,,,,,,,,,,,,,,,,,,,,,,,,,,,,,,
,,,,,,,,,,,,,,,,10000,2019-06-04_13h33.31.286,Probabilistic Learning,3.1.0,60,,,,,,0,,1,0,3,0,1,2,hiragana1.xlsx,hiragana11.xlsx,hiragana12.xlsx,6,0,180,21,1,179,I,L,c,,,c,,,,,,,,,,,,,,,,,,,,,,,,,,,,,,,,,
,,,,,,,,,,,,,,,,10000,2019-06-04_13h33.31.286,Probabilistic Learning,3.1.0,60,,,,,,0,,1,0,3,0,1,2,hiragana1.xlsx,hiragana11.xlsx,hiragana12.xlsx,6,0,180,5,1,179,a,A,m,m,,,,,,,,,,,,,,,,,,,,,,,,,,,,,,,,,,,
,,,,,,,,,,,,,,,,10000,2019-06-04_13h33.31.286,Probabilistic Learning,3.1.0,60,,,,,,0,,1,0,3,0,1,2,hiragana1.xlsx,hiragana11.xlsx,hiragana12.xlsx,6,0,180,27,1,179,I,L,m,,,c,,,,,,,,,,,,,,,,,,,,,,,,,,,,,,,,,
,,,,,,,,,,,,,,,,10000,2019-06-04_13h33.31.286,Probabilistic Learning,3.1.0,60,,,,,,0,,1,0,3,0,1,2,hiragana1.xlsx,hiragana11.xlsx,hiragana12.xlsx,6,0,180,11,1,179,O,d,c,,c,,,,,,,,,,,,,,,,,,,,,,,,,,,,,,,,,,
,,,,,,,,,,,,,,,,10000,2019-06-04_13h33.31.286,Probabilistic Learning,3.1.0,60,,,,,,0,,1,0,3,0,1,2,hiragana1.xlsx,hiragana11.xlsx,hiragana12.xlsx,6,0,180,8,1,179,A,a,m,c,,,,,,,,,,,,,,,,,,,,,,,,,,,,,,,,,,,
,,,,,,,,,,,,,,,,10000,2019-06-04_13h33.31.286,Probabilistic Learning,3.1.0,60,,,,,,0,,1,0,3,0,1,2,hiragana1.xlsx,hiragana11.xlsx,hiragana12.xlsx,6,0,180,1,1,179,A,a,c,c,,,,,,,,,,,,,,,,,,,,,,,,,,,,,,,,,,,
,,,,,,,,,,,,,,,,10000,2019-06-04_13h33.31.286,Probabilistic Learning,3.1.0,60,,,,,,0,,1,0,3,0,1,2,hiragana1.xlsx,hiragana11.xlsx,hiragana12.xlsx,6,0,180,25,1,179,L,I,m,,,m,,,,,,,,,,,,,,,,,,,,,,,,,,,,,,,,,
,,,,,,,,,,,,,,,,10000,2019-06-04_13h33.31.286,Probabilistic Learning,3.1.0,60,,,,,,0,,1,0,3,0,1,2,hiragana1.xlsx,hiragana11.xlsx,hiragana12.xlsx,6,0,180,23,1,179,L,I,m,,,m,,,,,,,,,,,,,,,,,,,,,,,,,,,,,,,,,
,,,,,,,,,,,,,,,,10000,2019-06-04_13h33.31.286,Probabilistic Learning,3.1.0,60,,,,,,0,,1,0,3,0,1,2,hiragana1.xlsx,hiragana11.xlsx,hiragana12.xlsx,6,0,180,15,1,179,d,O,m,,m,,,,,,,,,,,,,,,,,,,,,,,,,,,,,,,,,,
,,,,,,,,,,,,,,,,10000,2019-06-04_13h33.31.286,Probabilistic Learning,3.1.0,60,,,,,,0,,1,0,3,0,1,2,hiragana1.xlsx,hiragana11.xlsx,hiragana12.xlsx,6,0,180,9,1,179,a,A,c,m,,,,,,,,,,,,,,,,,,,,,,,,,,,,,,,,,,,
,,,,,,,,,,,,,,,,10000,2019-06-04_13h33.31.286,Probabilistic Learning,3.1.0,60,,,,,,0,,1,0,3,0,1,2,hiragana1.xlsx,hiragana11.xlsx,hiragana12.xlsx,6,0,180,24,1,179,L,I,m,,,m,,,,,,,,,,,,,,,,,,,,,,,,,,,,,,,,,
,,,,,,,,,,,,,,,,10000,2019-06-04_13h33.31.286,Probabilistic Learning,3.1.0,60,,,,,,0,,1,0,3,0,1,2,hiragana1.xlsx,hiragana11.xlsx,hiragana12.xlsx,6,0,180,10,1,179,O,d,c,,c,,,,,,,,,,,,,,,,,,,,,,,,,,,,,,,,,,
,,,,,,,,,,,,,,,,10000,2019-06-04_13h33.31.286,Probabilistic Learning,3.1.0,60,,,,,,0,,1,0,3,0,1,2,hiragana1.xlsx,hiragana11.xlsx,hiragana12.xlsx,6,0,180,0,1,179,A,a,c,c,,,,,,,,,,,,,,,,,,,,,,,,,,,,,,,,,,,
,,,,,,,,,,,,,,,,10000,2019-06-04_13h33.31.286,Probabilistic Learning,3.1.0,60,,,,,,0,,1,0,3,0,1,2,hiragana1.xlsx,hiragana11.xlsx,hiragana12.xlsx,6,0,180,27,1,179,I,L,m,,,c,,,,,,,,,,,,,,,,,,,,,,,,,,,,,,,,,
,,,,,,,,,,,,,,,,10000,2019-06-04_13h33.31.286,Probabilistic Learning,3.1.0,60,,,,,,0,,1,0,3,0,1,2,hiragana1.xlsx,hiragana11.xlsx,hiragana12.xlsx,6,0,180,29,1,179,L,I,c,,,m,,,,,,,,,,,,,,,,,,,,,,,,,,,,,,,,,
,,,,,,,,,,,,,,,,10000,2019-06-04_13h33.31.286,Probabilistic Learning,3.1.0,60,,,,,,0,,1,0,3,0,1,2,hiragana1.xlsx,hiragana11.xlsx,hiragana12.xlsx,6,0,180,21,1,179,I,L,c,,,c,,,,,,,,,,,,,,,,,,,,,,,,,,,,,,,,,
,,,,,,,,,,,,,,,,10000,2019-06-04_13h33.31.286,Probabilistic Learning,3.1.0,60,,,,,,0,,1,0,3,0,1,2,hiragana1.xlsx,hiragana11.xlsx,hiragana12.xlsx,6,0,180,16,1,179,d,O,m,,m,,,,,,,,,,,,,,,,,,,,,,,,,,,,,,,,,,
,,,,,,,,,,,,,,,,10000,2019-06-04_13h33.31.286,Probabilistic Learning,3.1.0,60,,,,,m,1,1.456,1,0,3,0,1,2,hiragana1.xlsx,hiragana11.xlsx,hiragana12.xlsx,6,0,180,6,1,179,a,A,m,m,,,,,,,,,,,,,,,,,,,,,,,,,,,,,,,,,,,
,,,,,,,,,,,,,,,,10000,2019-06-04_13h33.31.286,Probabilistic Learning,3.1.0,60,,,,,c,0,0.154,1,0,3,0,1,2,hiragana1.xlsx,hiragana11.xlsx,hiragana12.xlsx,6,0,180,4,1,179,a,A,m,m,,,,,,,,,,,,,,,,,,,,,,,,,,,,,,,,,,,
,,,,,,,,,,,,,,,,10000,2019-06-04_13h33.31.286,Probabilistic Learning,3.1.0,60,,,,,c,0,0.22,1,0,3,0,1,2,hiragana1.xlsx,hiragana11.xlsx,hiragana12.xlsx,6,0,180,23,1,179,L,I,m,,,m,,,,,,,,,,,,,,,,,,,,,,,,,,,,,,,,,
,,,,,,,,,,,,,,,,10000,2019-06-04_13h33.31.286,Probabilistic Learning,3.1.0,60,,,,,m,0,0.038,1,0,3,0,1,2,hiragana1.xlsx,hiragana11.xlsx,hiragana12.xlsx,6,0,180,28,1,179,L,I,c,,,m,,,,,,,,,,,,,,,,,,,,,,,,,,,,,,,,,
,,,,,,,,,,,,,,,,10000,2019-06-04_13h33.31.286,Probabilistic Learning,3.1.0,60,,,,,m,0,0.321,1,0,3,0,1,2,hiragana1.xlsx,hiragana11.xlsx,hiragana12.xlsx,6,0,180,18,1,179,d,O,c,,m,,,,,,,,,,,,,,,,,,,,,,,,,,,,,,,,,,
,,,,,,,,,,,,,,,,10000,2019-06-04_13h33.31.286,Probabilistic Learning,3.1.0,60,,,,,m,0,0.022,1,0,3,0,1,2,hiragana1.xlsx,hiragana11.xlsx,hiragana12.xlsx,6,0,180,11,1,179,O,d,c,,c,,,,,,,,,,,,,,,,,,,,,,,,,,,,,,,,,,
,,,,,,,,,,,,,,,,10000,2019-06-04_13h33.31.286,Probabilistic Learning,3.1.0,60,,,,,m,0,0.104,1,0,3,0,1,2,hiragana1.xlsx,hiragana11.xlsx,hiragana12.xlsx,6,0,180,22,1,179,I,L,c,,,c,,,,,,,,,,,,,,,,,,,,,,,,,,,,,,,,,
,,,,,,,,,,,,,,,,10000,2019-06-04_13h33.31.286,Probabilistic Learning,3.1.0,60,,,,,m,0,0.056,1,0,3,0,1,2,hiragana1.xlsx,hiragana11.xlsx,hiragana12.xlsx,6,0,180,20,1,179,I,L,c,,,c,,,,,,,,,,,,,,,,,,,,,,,,,,,,,,,,,
,,,,,,,,,,,,,,,,10000,2019-06-04_13h33.31.286,Probabilistic Learning,3.1.0,60,,,,,m,1,0.17,1,0,3,0,1,2,hiragana1.xlsx,hiragana11.xlsx,hiragana12.xlsx,6,0,180,7,1,179,a,A,m,m,,,,,,,,,,,,,,,,,,,,,,,,,,,,,,,,,,,
,,,,,,,,,,,,,,,,10000,2019-06-04_13h33.31.286,Probabilistic Learning,3.1.0,60,,,,,m,1,0.145,1,0,3,0,1,2,hiragana1.xlsx,hiragana11.xlsx,hiragana12.xlsx,6,0,180,8,1,179,A,a,m,c,,,,,,,,,,,,,,,,,,,,,,,,,,,,,,,,,,,
,,,,,,,,,,,,,,,,10000,2019-06-04_13h33.31.286,Probabilistic Learning,3.1.0,60,,,,,c,1,0.152,1,0,3,0,1,2,hiragana1.xlsx,hiragana11.xlsx,hiragana12.xlsx,6,0,180,1,1,179,A,a,c,c,,,,,,,,,,,,,,,,,,,,,,,,,,,,,,,,,,,
,,,,,,,,,,,,,,,,10000,2019-06-04_13h33.31.286,Probabilistic Learning,3.1.0,60,,,,,c,1,0.27,1,0,3,0,1,2,hiragana1.xlsx,hiragana11.xlsx,hiragana12.xlsx,6,0,180,2,1,179,A,a,c,c,,,,,,,,,,,,,,,,,,,,,,,,,,,,,,,,,,,
,,,,,,,,,,,,,,,,10000,2019-06-04_13h33.31.286,Probabilistic Learning,3.1.0,60,,,,,,0,,1,0,3,0,1,2,hiragana1.xlsx,hiragana11.xlsx,hiragana12.xlsx,6,0,180,13,1,179,O,d,c,,c,,,,,,,,,,,,,,,,,,,,,,,,,,,,,,,,,,
,,,,,,,,,,,,,,,,10000,2019-06-04_13h33.31.286,Probabilistic Learning,3.1.0,60,,,,,m,1,0.058,1,0,3,0,1,2,hiragana1.xlsx,hiragana11.xlsx,hiragana12.xlsx,6,0,180,14,1,179,d,O,m,,m,,,,,,,,,,,,,,,,,,,,,,,,,,,,,,,,,,
,,,,,,,,,,,,,,,,10000,2019-06-04_13h33.31.286,Probabilistic Learning,3.1.0,60,,,,,,0,,1,0,3,0,1,2,hiragana1.xlsx,hiragana11.xlsx,hiragana12.xlsx,6,0,180,5,1,179,a,A,m,m,,,,,,,,,,,,,,,,,,,,,,,,,,,,,,,,,,,
,,,,,,,,,,,,,,,,10000,2019-06-04_13h33.31.286,Probabilistic Learning,3.1.0,60,,,,,m,1,0.904,1,0,3,0,1,2,hiragana1.xlsx,hiragana11.xlsx,hiragana12.xlsx,6,0,180,25,1,179,L,I,m,,,m,,,,,,,,,,,,,,,,,,,,,,,,,,,,,,,,,
,,,,,,,,,,,,,,,,10000,2019-06-04_13h33.31.286,Probabilistic Learning,3.1.0,60,,,,,c,0,0.122,1,0,3,0,1,2,hiragana1.xlsx,hiragana11.xlsx,hiragana12.xlsx,6,0,180,26,1,179,I,L,m,,,c,,,,,,,,,,,,,,,,,,,,,,,,,,,,,,,,,
,,,,,,,,,,,,,,,,10000,2019-06-04_13h33.31.286,Probabilistic Learning,3.1.0,60,,,,,c,1,0.008,1,0,3,0,1,2,hiragana1.xlsx,hiragana11.xlsx,hiragana12.xlsx,6,0,180,3,1,179,A,a,c,c,,,,,,,,,,,,,,,,,,,,,,,,,,,,,,,,,,,
,,,,,,,,,,,,,,,,10000,2019-06-04_13h33.31.286,Probabilistic Learning,3.1.0,60,,,,,c,1,0.037,1,0,3,0,1,2,hiragana1.xlsx,hiragana11.xlsx,hiragana12.xlsx,6,0,180,17,1,179,d,O,c,,m,,,,,,,,,,,,,,,,,,,,,,,,,,,,,,,,,,
,,,,,,,,,,,,,,,,10000,2019-06-04_13h33.31.286,Probabilistic Learning,3.1.0,60,,,,,m,0,0.038,1,0,3,0,1,2,hiragana1.xlsx,hiragana11.xlsx,hiragana12.xlsx,6,0,180,12,1,179,O,d,c,,c,,,,,,,,,,,,,,,,,,,,,,,,,,,,,,,,,,
,,,,,,,,,,,,,,,,10000,2019-06-04_13h33.31.286,Probabilistic Learning,3.1.0,60,,,,,m,1,0.075,1,0,3,0,1,2,hiragana1.xlsx,hiragana11.xlsx,hiragana12.xlsx,6,0,180,19,1,179,O,d,m,,c,,,,,,,,,,,,,,,,,,,,,,,,,,,,,,,,,,
,,,,,,,,,,,,,,,,10000,2019-06-04_13h33.31.286,Probabilistic Learning,3.1.0,60,,,,,m,0,0.105,1,0,3,0,1,2,hiragana1.xlsx,hiragana11.xlsx,hiragana12.xlsx,6,0,180,20,1,179,I,L,c,,,c,,,,,,,,,,,,,,,,,,,,,,,,,,,,,,,,,
,,,,,,,,,,,,,,,,10000,2019-06-04_13h33.31.286,Probabilistic Learning,3.1.0,60,,,,,m,1,0.01,1,0,3,0,1,2,hiragana1.xlsx,hiragana11.xlsx,hiragana12.xlsx,6,0,180,27,1,179,I,L,m,,,c,,,,,,,,,,,,,,,,,,,,,,,,,,,,,,,,,
,,,,,,,,,,,,,,,,10000,2019-06-04_13h33.31.286,Probabilistic Learning,3.1.0,60,,,,,c,0,0.022,1,0,3,0,1,2,hiragana1.xlsx,hiragana11.xlsx,hiragana12.xlsx,6,0,180,19,1,179,O,d,m,,c,,,,,,,,,,,,,,,,,,,,,,,,,,,,,,,,,,
,,,,,,,,,,,,,,,,10000,2019-06-04_13h33.31.286,Probabilistic Learning,3.1.0,60,,,,,,0,,1,0,3,0,1,2,hiragana1.xlsx,hiragana11.xlsx,hiragana12.xlsx,6,0,180,6,1,179,a,A,m,m,,,,,,,,,,,,,,,,,,,,,,,,,,,,,,,,,,,
,,,,,,,,,,,,,,,,10000,2019-06-04_13h33.31.286,Probabilistic Learning,3.1.0,60,,,,,,0,,1,0,3,0,1,2,hiragana1.xlsx,hiragana11.xlsx,hiragana12.xlsx,6,0,180,26,1,179,I,L,m,,,c,,,,,,,,,,,,,,,,,,,,,,,,,,,,,,,,,
,,,,,,,,,,,,,,,,10000,2019-06-04_13h33.31.286,Probabilistic Learning,3.1.0,60,,,,,,0,,1,0,3,0,1,2,hiragana1.xlsx,hiragana11.xlsx,hiragana12.xlsx,6,0,180,18,1,179,d,O,c,,m,,,,,,,,,,,,,,,,,,,,,,,,,,,,,,,,,,
,,,,,,,,,,,,,,,,10000,2019-06-04_13h33.31.286,Probabilistic Learning,3.1.0,60,,,,,,0,,1,0,3,0,1,2,hiragana1.xlsx,hiragana11.xlsx,hiragana12.xlsx,6,0,180,10,1,179,O,d,c,,c,,,,,,,,,,,,,,,,,,,,,,,,,,,,,,,,,,
,,,,,,,,,,,,,,,,10000,2019-06-04_13h33.31.286,Probabilistic Learning,3.1.0,60,,,,,,0,,1,0,3,0,1,2,hiragana1.xlsx,hiragana11.xlsx,hiragana12.xlsx,6,0,180,22,1,179,I,L,c,,,c,,,,,,,,,,,,,,,,,,,,,,,,,,,,,,,,,
,,,,,,,,,,,,,,,,10000,2019-06-04_13h33.31.286,Probabilistic Learning,3.1.0,60,,,,,m,0,0.155,1,0,3,0,1,2,hiragana1.xlsx,hiragana11.xlsx,hiragana12.xlsx,6,0,180,17,1,179,d,O,c,,m,,,,,,,,,,,,,,,,,,,,,,,,,,,,,,,,,,
,,,,,,,,,,,,,,,,10000,2019-06-04_13h33.31.286,Probabilistic Learning,3.1.0,60,,,,,m,0,0.023,1,0,3,0,1,2,hiragana1.xlsx,hiragana11.xlsx,hiragana12.xlsx,6,0,180,28,1,179,L,I,c,,,m,,,,,,,,,,,,,,,,,,,,,,,,,,,,,,,,,
,,,,,,,,,,,,,,,,10000,2019-06-04_13h33.31.286,Probabilistic Learning,3.1.0,60,,,,,m,0,0.188,1,0,3,0,1,2,hiragana1.xlsx,hiragana11.xlsx,hiragana12.xlsx,6,0,180,9,1,179,a,A,c,m,,,,,,,,,,,,,,,,,,,,,,,,,,,,,,,,,,,
,,,,,,,,,,,,,,,,10000,2019-06-04_13h33.31.286,Probabilistic Learning,3.1.0,60,,,,,m,1,0.122,1,0,3,0,1,2,hiragana1.xlsx,hiragana11.xlsx,hiragana12.xlsx,6,0,180,5,1,179,a,A,m,m,,,,,,,,,,,,,,,,,,,,,,,,,,,,,,,,,,,
,,,,,,,,,,,,,,,,10000,2019-06-04_13h33.31.286,Probabilistic Learning,3.1.0,60,,,,,m,1,0.238,1,0,3,0,1,2,hiragana1.xlsx,hiragana11.xlsx,hiragana12.xlsx,6,0,180,25,1,179,L,I,m,,,m,,,,,,,,,,,,,,,,,,,,,,,,,,,,,,,,,
,,,,,,,,,,,,,,,,10000,2019-06-04_13h33.31.286,Probabilistic Learning,3.1.0,60,,,,,m,0,0.142,1,0,3,0,1,2,hiragana1.xlsx,hiragana11.xlsx,hiragana12.xlsx,6,0,180,29,1,179,L,I,c,,,m,,,,,,,,,,,,,,,,,,,,,,,,,,,,,,,,,
,,,,,,,,,,,,,,,,10000,2019-06-04_13h33.31.286,Probabilistic Learning,3.1.0,60,,,,,m,0,0.071,1,0,3,0,1,2,hiragana1.xlsx,hiragana11.xlsx,hiragana12.xlsx,6,0,180,0,1,179,A,a,c,c,,,,,,,,,,,,,,,,,,,,,,,,,,,,,,,,,,,
,,,,,,,,,,,,,,,,10000,2019-06-04_13h33.31.286,Probabilistic Learning,3.1.0,60,,,,,m,1,0.087,1,0,3,0,1,2,hiragana1.xlsx,hiragana11.xlsx,hiragana12.xlsx,6,0,180,4,1,179,a,A,m,m,,,,,,,,,,,,,,,,,,,,,,,,,,,,,,,,,,,
,,,,,,,,,,,,,,,,10000,2019-06-04_13h33.31.286,Probabilistic Learning,3.1.0,60,,,,,m,1,0.1,1,0,3,0,1,2,hiragana1.xlsx,hiragana11.xlsx,hiragana12.xlsx,6,0,180,8,1,179,A,a,m,c,,,,,,,,,,,,,,,,,,,,,,,,,,,,,,,,,,,
,,,,,,,,,,,,,,,,10000,2019-06-04_13h33.31.286,Probabilistic Learning,3.1.0,60,,,,,m,0,0.145,1,0,3,0,1,2,hiragana1.xlsx,hiragana11.xlsx,hiragana12.xlsx,6,0,180,11,1,179,O,d,c,,c,,,,,,,,,,,,,,,,,,,,,,,,,,,,,,,,,,
,,,,,,,,,,,,,,,,10000,2019-06-04_13h33.31.286,Probabilistic Learning,3.1.0,60,,,,,m,1,0.12,1,0,3,0,1,2,hiragana1.xlsx,hiragana11.xlsx,hiragana12.xlsx,6,0,180,14,1,179,d,O,m,,m,,,,,,,,,,,,,,,,,,,,,,,,,,,,,,,,,,
,,,,,,,,,,,,,,,,10000,2019-06-04_13h33.31.286,Probabilistic Learning,3.1.0,60,,,,,m,0,0.121,1,0,3,0,1,2,hiragana1.xlsx,hiragana11.xlsx,hiragana12.xlsx,6,0,180,2,1,179,A,a,c,c,,,,,,,,,,,,,,,,,,,,,,,,,,,,,,,,,,,
,,,,,,,,,,,,,,,,10000,2019-06-04_13h33.31.286,Probabilistic Learning,3.1.0,60,,,,,m,1,0.203,1,0,3,0,1,2,hiragana1.xlsx,hiragana11.xlsx,hiragana12.xlsx,6,0,180,15,1,179,d,O,m,,m,,,,,,,,,,,,,,,,,,,,,,,,,,,,,,,,,,
,,,,,,,,,,,,,,,,10000,2019-06-04_13h33.31.286,Probabilistic Learning,3.1.0,60,,,,,m,0,0.005,1,0,3,0,1,2,hiragana1.xlsx,hiragana11.xlsx,hiragana12.xlsx,6,0,180,12,1,179,O,d,c,,c,,,,,,,,,,,,,,,,,,,,,,,,,,,,,,,,,,
,,,,,,,,,,,,,,,,10000,2019-06-04_13h33.31.286,Probabilistic Learning,3.1.0,60,,,,,m,1,0.004,1,0,3,0,1,2,hiragana1.xlsx,hiragana11.xlsx,hiragana12.xlsx,6,0,180,23,1,179,L,I,m,,,m,,,,,,,,,,,,,,,,,,,,,,,,,,,,,,,,,
,,,,,,,,,,,,,,,,10000,2019-06-04_13h33.31.286,Probabilistic Learning,3.1.0,60,,,,,m,0,0.02,1,0,3,0,1,2,hiragana1.xlsx,hiragana11.xlsx,hiragana12.xlsx,6,0,180,3,1,179,A,a,c,c,,,,,,,,,,,,,,,,,,,,,,,,,,,,,,,,,,,
,,,,,,,,,,,,,,,,10000,2019-06-04_13h33.31.286,Probabilistic Learning,3.1.0,60,,,,,m,1,0.023,1,0,3,0,1,2,hiragana1.xlsx,hiragana11.xlsx,hiragana12.xlsx,6,0,180,7,1,179,a,A,m,m,,,,,,,,,,,,,,,,,,,,,,,,,,,,,,,,,,,
,,,,,,,,,,,,,,,,10000,2019-06-04_13h33.31.286,Probabilistic Learning,3.1.0,60,,,,,m,0,0.021,1,0,3,0,1,2,hiragana1.xlsx,hiragana11.xlsx,hiragana12.xlsx,6,0,180,13,1,179,O,d,c,,c,,,,,,,,,,,,,,,,,,,,,,,,,,,,,,,,,,
,,,,,,,,,,,,,,,,10000,2019-06-04_13h33.31.286,Probabilistic Learning,3.1.0,60,,,,,m,1,0.022,1,0,3,0,1,2,hiragana1.xlsx,hiragana11.xlsx,hiragana12.xlsx,6,0,180,16,1,179,d,O,m,,m,,,,,,,,,,,,,,,,,,,,,,,,,,,,,,,,,,
,,,,,,,,,,,,,,,,10000,2019-06-04_13h33.31.286,Probabilistic Learning,3.1.0,60,,,,,m,0,0.019,1,0,3,0,1,2,hiragana1.xlsx,hiragana11.xlsx,hiragana12.xlsx,6,0,180,1,1,179,A,a,c,c,,,,,,,,,,,,,,,,,,,,,,,,,,,,,,,,,,,
,,,,,,,,,,,,,,,,10000,2019-06-04_13h33.31.286,Probabilistic Learning,3.1.0,60,,,,,m,0,0.004,1,0,3,0,1,2,hiragana1.xlsx,hiragana11.xlsx,hiragana12.xlsx,6,0,180,21,1,179,I,L,c,,,c,,,,,,,,,,,,,,,,,,,,,,,,,,,,,,,,,
,,,,,,,,,,,,,,,,10000,2019-06-04_13h33.31.286,Probabilistic Learning,3.1.0,60,,,,,m,1,0.006,1,0,3,0,1,2,hiragana1.xlsx,hiragana11.xlsx,hiragana12.xlsx,6,0,180,24,1,179,L,I,m,,,m,,,,,,,,,,,,,,,,,,,,,,,,,,,,,,,,,
,,,,,,,,,,,,,,,,10000,2019-06-04_13h33.31.286,Probabilistic Learning,3.1.0,60,,,,,m,1,0.006,1,0,3,0,1,2,hiragana1.xlsx,hiragana11.xlsx,hiragana12.xlsx,6,0,180,6,1,179,a,A,m,m,,,,,,,,,,,,,,,,,,,,,,,,,,,,,,,,,,,
,,,,,,,,,,,,,,,,10000,2019-06-04_13h33.31.286,Probabilistic Learning,3.1.0,60,,,,,m,1,0.002,1,0,3,0,1,2,hiragana1.xlsx,hiragana11.xlsx,hiragana12.xlsx,6,0,180,19,1,179,O,d,m,,c,,,,,,,,,,,,,,,,,,,,,,,,,,,,,,,,,,
,,,,,,,,,,,,,,,,10000,2019-06-04_13h33.31.286,Probabilistic Learning,3.1.0,60,,,,,m,0,0.035,1,0,3,0,1,2,hiragana1.xlsx,hiragana11.xlsx,hiragana12.xlsx,6,0,180,9,1,179,a,A,c,m,,,,,,,,,,,,,,,,,,,,,,,,,,,,,,,,,,,
,,,,,,,,,,,,,,,,10000,2019-06-04_13h33.31.286,Probabilistic Learning,3.1.0,60,,,,,m,1,0.005,1,0,3,0,1,2,hiragana1.xlsx,hiragana11.xlsx,hiragana12.xlsx,6,0,180,5,1,179,a,A,m,m,,,,,,,,,,,,,,,,,,,,,,,,,,,,,,,,,,,
,,,,,,,,,,,,,,,,10000,2019-06-04_13h33.31.286,Probabilistic Learning,3.1.0,60,,,,,m,0,0.005,1,0,3,0,1,2,hiragana1.xlsx,hiragana11.xlsx,hiragana12.xlsx,6,0,180,20,1,179,I,L,c,,,c,,,,,,,,,,,,,,,,,,,,,,,,,,,,,,,,,
,,,,,,,,,,,,,,,,10000,2019-06-04_13h33.31.286,Probabilistic Learning,3.1.0,60,,,,,m,0,0.032,1,0,3,0,1,2,hiragana1.xlsx,hiragana11.xlsx,hiragana12.xlsx,6,0,180,17,1,179,d,O,c,,m,,,,,,,,,,,,,,,,,,,,,,,,,,,,,,,,,,
,,,,,,,,,,,,,,,,10000,2019-06-04_13h33.31.286,Probabilistic Learning,3.1.0,60,,,,,m,0,0.022,1,0,3,0,1,2,hiragana1.xlsx,hiragana11.xlsx,hiragana12.xlsx,6,0,180,11,1,179,O,d,c,,c,,,,,,,,,,,,,,,,,,,,,,,,,,,,,,,,,,
,,,,,,,,,,,,,,,,10000,2019-06-04_13h33.31.286,Probabilistic Learning,3.1.0,60,,,,,m,1,0.022,1,0,3,0,1,2,hiragana1.xlsx,hiragana11.xlsx,hiragana12.xlsx,6,0,180,7,1,179,a,A,m,m,,,,,,,,,,,,,,,,,,,,,,,,,,,,,,,,,,,
,,,,,,,,,,,,,,,,10000,2019-06-04_13h33.31.286,Probabilistic Learning,3.1.0,60,,,,,m,0,0.023,1,0,3,0,1,2,hiragana1.xlsx,hiragana11.xlsx,hiragana12.xlsx,6,0,180,0,1,179,A,a,c,c,,,,,,,,,,,,,,,,,,,,,,,,,,,,,,,,,,,
,,,,,,,,,,,,,,,,10000,2019-06-04_13h33.31.286,Probabilistic Learning,3.1.0,60,,,,,m,1,0.023,1,0,3,0,1,2,hiragana1.xlsx,hiragana11.xlsx,hiragana12.xlsx,6,0,180,25,1,179,L,I,m,,,m,,,,,,,,,,,,,,,,,,,,,,,,,,,,,,,,,
,,,,,,,,,,,,,,,,10000,2019-06-04_13h33.31.286,Probabilistic Learning,3.1.0,60,,,,,m,1,0.022,1,0,3,0,1,2,hiragana1.xlsx,hiragana11.xlsx,hiragana12.xlsx,6,0,180,14,1,179,d,O,m,,m,,,,,,,,,,,,,,,,,,,,,,,,,,,,,,,,,,
,,,,,,,,,,,,,,,,10000,2019-06-04_13h33.31.286,Probabilistic Learning,3.1.0,60,,,,,m,0,0.005,1,0,3,0,1,2,hiragana1.xlsx,hiragana11.xlsx,hiragana12.xlsx,6,0,180,3,1,179,A,a,c,c,,,,,,,,,,,,,,,,,,,,,,,,,,,,,,,,,,,
,,,,,,,,,,,,,,,,10000,2019-06-04_13h33.31.286,Probabilistic Learning,3.1.0,60,,,,,m,0,0.022,1,0,3,0,1,2,hiragana1.xlsx,hiragana11.xlsx,hiragana12.xlsx,6,0,180,18,1,179,d,O,c,,m,,,,,,,,,,,,,,,,,,,,,,,,,,,,,,,,,,
,,,,,,,,,,,,,,,,10000,2019-06-04_13h33.31.286,Probabilistic Learning,3.1.0,60,,,,,m,0,0.005,1,0,3,0,1,2,hiragana1.xlsx,hiragana11.xlsx,hiragana12.xlsx,6,0,180,13,1,179,O,d,c,,c,,,,,,,,,,,,,,,,,,,,,,,,,,,,,,,,,,
,,,,,,,,,,,,,,,,10000,2019-06-04_13h33.31.286,Probabilistic Learning,3.1.0,60,,,,,m,0,0.006,1,0,3,0,1,2,hiragana1.xlsx,hiragana11.xlsx,hiragana12.xlsx,6,0,180,1,1,179,A,a,c,c,,,,,,,,,,,,,,,,,,,,,,,,,,,,,,,,,,,
,,,,,,,,,,,,,,,,10000,2019-06-04_13h33.31.286,Probabilistic Learning,3.1.0,60,,,,,m,1,0.021,1,0,3,0,1,2,hiragana1.xlsx,hiragana11.xlsx,hiragana12.xlsx,6,0,180,4,1,179,a,A,m,m,,,,,,,,,,,,,,,,,,,,,,,,,,,,,,,,,,,
,,,,,,,,,,,,,,,,10000,2019-06-04_13h33.31.286,Probabilistic Learning,3.1.0,60,,,,,m,0,0.006,1,0,3,0,1,2,hiragana1.xlsx,hiragana11.xlsx,hiragana12.xlsx,6,0,180,10,1,179,O,d,c,,c,,,,,,,,,,,,,,,,,,,,,,,,,,,,,,,,,,
,,,,,,,,,,,,,,,,10000,2019-06-04_13h33.31.286,Probabilistic Learning,3.1.0,60,,,,,m,0,0.006,1,0,3,0,1,2,hiragana1.xlsx,hiragana11.xlsx,hiragana12.xlsx,6,0,180,2,1,179,A,a,c,c,,,,,,,,,,,,,,,,,,,,,,,,,,,,,,,,,,,
,,,,,,,,,,,,,,,,10000,2019-06-04_13h33.31.286,Probabilistic Learning,3.1.0,60,,,,,m,0,0.006,1,0,3,0,1,2,hiragana1.xlsx,hiragana11.xlsx,hiragana12.xlsx,6,0,180,12,1,179,O,d,c,,c,,,,,,,,,,,,,,,,,,,,,,,,,,,,,,,,,,
,,,,,,,,,,,,,,,,10000,2019-06-04_13h33.31.286,Probabilistic Learning,3.1.0,60,,,,,m,0,0.023,1,0,3,0,1,2,hiragana1.xlsx,hiragana11.xlsx,hiragana12.xlsx,6,0,180,29,1,179,L,I,c,,,m,,,,,,,,,,,,,,,,,,,,,,,,,,,,,,,,,
