welc_resp.keys,welc_resp.rt,intr0_resp.keys,intr0_resp.rt,prep_resp.keys,prep_resp.corr,prep_resp.rt,preparation.thisRepN,preparation.thisTrialN,preparation.thisN,preparation.thisIndex,preparation.ran,preparation.order,letter10,letter20,corrAns0,Participant ID*,date,expName,psychopyVersion,frameRate,outro_resp.keys,outro_resp.rt,instr1_resp.keys,instr1_resp.rt,resp.keys,resp.corr,resp.rt,letterMaster.thisRepN,letterMaster.thisTrialN,letterMaster.thisN,letterMaster.thisIndex,letterMaster.ran,letterMaster.order,letterset,letterset2,letterset3,practice.thisRepN,practice.thisTrialN,practice.thisN,practice.thisIndex,practice.ran,practice.order,letter1,letter2,corrAns,letterA,letterC,letterE,instr2_resp.keys,instr2_resp.rt,instr3_resp.keys,instr3_resp.rt,test_resp.keys,test_resp.rt,test.thisRepN,test.thisTrialN,test.thisN,test.thisIndex,test.ran,test.order,letter3,letter4,letterA2,letterB2,pickA,avoidB,check_resp.keys,check_resp.rt,learnt_resp.keys,learnt_resp.rt,checks.thisRepN,checks.thisTrialN,checks.thisN,checks.thisIndex,checks.ran,checks.order,question,learnt_letters,numbers
space,2.638,space,0.696,c,1,0.409,1,0,10,5,1,9,p1.jpg,p2.jpg,c,111,2019-06-06_22h24.50.811,Probabilistic Learning,3.1.0,60,,,,,,,,,,,,,,,,,,,,,,,,,,,,,,,,,,,,,,,,,,,,,,,,,,,,,,,,,,,
,,,,c,1,0.33,1,0,10,6,1,9,p1.jpg,p2.jpg,c,111,2019-06-06_22h24.50.811,Probabilistic Learning,3.1.0,60,,,,,,,,,,,,,,,,,,,,,,,,,,,,,,,,,,,,,,,,,,,,,,,,,,,,,,,,,,,
,,,,c,1,0.294,1,0,10,0,1,9,p1.jpg,p2.jpg,c,111,2019-06-06_22h24.50.811,Probabilistic Learning,3.1.0,60,,,,,,,,,,,,,,,,,,,,,,,,,,,,,,,,,,,,,,,,,,,,,,,,,,,,,,,,,,,
,,,,m,1,0.363,1,0,10,7,1,9,p2.jpg,p1.jpg,m,111,2019-06-06_22h24.50.811,Probabilistic Learning,3.1.0,60,,,,,,,,,,,,,,,,,,,,,,,,,,,,,,,,,,,,,,,,,,,,,,,,,,,,,,,,,,,
,,,,m,1,0.348,1,0,10,2,1,9,p2.jpg,p1.jpg,m,111,2019-06-06_22h24.50.811,Probabilistic Learning,3.1.0,60,,,,,,,,,,,,,,,,,,,,,,,,,,,,,,,,,,,,,,,,,,,,,,,,,,,,,,,,,,,
,,,,c,1,0.313,1,0,10,1,1,9,p1.jpg,p2.jpg,c,111,2019-06-06_22h24.50.811,Probabilistic Learning,3.1.0,60,,,,,,,,,,,,,,,,,,,,,,,,,,,,,,,,,,,,,,,,,,,,,,,,,,,,,,,,,,,
,,,,c,1,0.346,1,0,10,4,1,9,p1.jpg,p2.jpg,c,111,2019-06-06_22h24.50.811,Probabilistic Learning,3.1.0,60,,,,,,,,,,,,,,,,,,,,,,,,,,,,,,,,,,,,,,,,,,,,,,,,,,,,,,,,,,,
,,,,m,0,0.33,1,0,10,8,1,9,p2.jpg,p1.jpg,c,111,2019-06-06_22h24.50.811,Probabilistic Learning,3.1.0,60,,,,,,,,,,,,,,,,,,,,,,,,,,,,,,,,,,,,,,,,,,,,,,,,,,,,,,,,,,,
,,,,c,0,0.287,1,0,10,9,1,9,p1.jpg,p2.jpg,m,111,2019-06-06_22h24.50.811,Probabilistic Learning,3.1.0,60,,,,,,,,,,,,,,,,,,,,,,,,,,,,,,,,,,,,,,,,,,,,,,,,,,,,,,,,,,,
,,,,m,1,0.314,1,0,10,3,1,9,p2.jpg,p1.jpg,m,111,2019-06-06_22h24.50.811,Probabilistic Learning,3.1.0,60,,,,,,,,,,,,,,,,,,,,,,,,,,,,,,,,,,,,,,,,,,,,,,,,,,,,,,,,,,,
,,,,,,,,,,,,,,,,111,2019-06-06_22h24.50.811,Probabilistic Learning,3.1.0,60,space,1.171,space,1.26,c,0,0.466,1,0,3,2,1,2,hiragana3.xlsx,hiragana31.xlsx,hiragana32.xlsx,6,0,180,15,1,179,l24.jpg,l23.jpg,m,,m,,,,,,,,,,,,,,,,,,,,,,,,,,,,,,,,
,,,,,,,,,,,,,,,,111,2019-06-06_22h24.50.811,Probabilistic Learning,3.1.0,60,,,,,c,1,0.379,1,0,3,2,1,2,hiragana3.xlsx,hiragana31.xlsx,hiragana32.xlsx,6,0,180,22,1,179,l25.jpg,l26.jpg,c,,,c,,,,,,,,,,,,,,,,,,,,,,,,,,,,,,,
,,,,,,,,,,,,,,,,111,2019-06-06_22h24.50.811,Probabilistic Learning,3.1.0,60,,,,,c,0,0.462,1,0,3,2,1,2,hiragana3.xlsx,hiragana31.xlsx,hiragana32.xlsx,6,0,180,8,1,179,l21.jpg,l22.jpg,m,c,,,,,,,,,,,,,,,,,,,,,,,,,,,,,,,,,
,,,,,,,,,,,,,,,,111,2019-06-06_22h24.50.811,Probabilistic Learning,3.1.0,60,,,,,c,1,0.512,1,0,3,2,1,2,hiragana3.xlsx,hiragana31.xlsx,hiragana32.xlsx,6,0,180,21,1,179,l25.jpg,l26.jpg,c,,,c,,,,,,,,,,,,,,,,,,,,,,,,,,,,,,,
,,,,,,,,,,,,,,,,111,2019-06-06_22h24.50.811,Probabilistic Learning,3.1.0,60,,,,,m,0,0.646,1,0,3,2,1,2,hiragana3.xlsx,hiragana31.xlsx,hiragana32.xlsx,6,0,180,9,1,179,l22.jpg,l21.jpg,c,m,,,,,,,,,,,,,,,,,,,,,,,,,,,,,,,,,
,,,,,,,,,,,,,,,,111,2019-06-06_22h24.50.811,Probabilistic Learning,3.1.0,60,,,,,c,0,0.547,1,0,3,2,1,2,hiragana3.xlsx,hiragana31.xlsx,hiragana32.xlsx,6,0,180,19,1,179,l23.jpg,l24.jpg,m,,c,,,,,,,,,,,,,,,,,,,,,,,,,,,,,,,,
,,,,,,,,,,,,,,,,111,2019-06-06_22h24.50.811,Probabilistic Learning,3.1.0,60,,,,,c,0,0.43,1,0,3,2,1,2,hiragana3.xlsx,hiragana31.xlsx,hiragana32.xlsx,6,0,180,27,1,179,l25.jpg,l26.jpg,m,,,c,,,,,,,,,,,,,,,,,,,,,,,,,,,,,,,
,,,,,,,,,,,,,,,,111,2019-06-06_22h24.50.811,Probabilistic Learning,3.1.0,60,,,,,m,1,0.598,1,0,3,2,1,2,hiragana3.xlsx,hiragana31.xlsx,hiragana32.xlsx,6,0,180,4,1,179,l22.jpg,l21.jpg,m,m,,,,,,,,,,,,,,,,,,,,,,,,,,,,,,,,,
,,,,,,,,,,,,,,,,111,2019-06-06_22h24.50.811,Probabilistic Learning,3.1.0,60,,,,,c,1,0.465,1,0,3,2,1,2,hiragana3.xlsx,hiragana31.xlsx,hiragana32.xlsx,6,0,180,3,1,179,l21.jpg,l22.jpg,c,c,,,,,,,,,,,,,,,,,,,,,,,,,,,,,,,,,
,,,,,,,,,,,,,,,,111,2019-06-06_22h24.50.811,Probabilistic Learning,3.1.0,60,,,,,m,0,0.48,1,0,3,2,1,2,hiragana3.xlsx,hiragana31.xlsx,hiragana32.xlsx,6,0,180,18,1,179,l24.jpg,l23.jpg,c,,m,,,,,,,,,,,,,,,,,,,,,,,,,,,,,,,,
,,,,,,,,,,,,,,,,111,2019-06-06_22h24.50.811,Probabilistic Learning,3.1.0,60,,,,,m,1,0.398,1,0,3,2,1,2,hiragana3.xlsx,hiragana31.xlsx,hiragana32.xlsx,6,0,180,16,1,179,l24.jpg,l23.jpg,m,,m,,,,,,,,,,,,,,,,,,,,,,,,,,,,,,,,
,,,,,,,,,,,,,,,,111,2019-06-06_22h24.50.811,Probabilistic Learning,3.1.0,60,,,,,m,0,0.364,1,0,3,2,1,2,hiragana3.xlsx,hiragana31.xlsx,hiragana32.xlsx,6,0,180,17,1,179,l24.jpg,l23.jpg,c,,m,,,,,,,,,,,,,,,,,,,,,,,,,,,,,,,,
,,,,,,,,,,,,,,,,111,2019-06-06_22h24.50.811,Probabilistic Learning,3.1.0,60,,,,,m,1,0.465,1,0,3,2,1,2,hiragana3.xlsx,hiragana31.xlsx,hiragana32.xlsx,6,0,180,5,1,179,l22.jpg,l21.jpg,m,m,,,,,,,,,,,,,,,,,,,,,,,,,,,,,,,,,
,,,,,,,,,,,,,,,,111,2019-06-06_22h24.50.811,Probabilistic Learning,3.1.0,60,,,,,c,1,0.381,1,0,3,2,1,2,hiragana3.xlsx,hiragana31.xlsx,hiragana32.xlsx,6,0,180,0,1,179,l21.jpg,l22.jpg,c,c,,,,,,,,,,,,,,,,,,,,,,,,,,,,,,,,,
,,,,,,,,,,,,,,,,111,2019-06-06_22h24.50.811,Probabilistic Learning,3.1.0,60,,,,,m,1,0.38,1,0,3,2,1,2,hiragana3.xlsx,hiragana31.xlsx,hiragana32.xlsx,6,0,180,6,1,179,l22.jpg,l21.jpg,m,m,,,,,,,,,,,,,,,,,,,,,,,,,,,,,,,,,
,,,,,,,,,,,,,,,,111,2019-06-06_22h24.50.811,Probabilistic Learning,3.1.0,60,,,,,c,0,0.49,1,0,3,2,1,2,hiragana3.xlsx,hiragana31.xlsx,hiragana32.xlsx,6,0,180,26,1,179,l25.jpg,l26.jpg,m,,,c,,,,,,,,,,,,,,,,,,,,,,,,,,,,,,,
,,,,,,,,,,,,,,,,111,2019-06-06_22h24.50.811,Probabilistic Learning,3.1.0,60,,,,,m,1,0.365,1,0,3,2,1,2,hiragana3.xlsx,hiragana31.xlsx,hiragana32.xlsx,6,0,180,23,1,179,l26.jpg,l25.jpg,m,,,m,,,,,,,,,,,,,,,,,,,,,,,,,,,,,,,
,,,,,,,,,,,,,,,,111,2019-06-06_22h24.50.811,Probabilistic Learning,3.1.0,60,,,,,m,0,0.38,1,0,3,2,1,2,hiragana3.xlsx,hiragana31.xlsx,hiragana32.xlsx,6,0,180,29,1,179,l26.jpg,l25.jpg,c,,,m,,,,,,,,,,,,,,,,,,,,,,,,,,,,,,,
,,,,,,,,,,,,,,,,111,2019-06-06_22h24.50.811,Probabilistic Learning,3.1.0,60,,,,,c,1,0.399,1,0,3,2,1,2,hiragana3.xlsx,hiragana31.xlsx,hiragana32.xlsx,6,0,180,2,1,179,l21.jpg,l22.jpg,c,c,,,,,,,,,,,,,,,,,,,,,,,,,,,,,,,,,
,,,,,,,,,,,,,,,,111,2019-06-06_22h24.50.811,Probabilistic Learning,3.1.0,60,,,,,c,1,0.414,1,0,3,2,1,2,hiragana3.xlsx,hiragana31.xlsx,hiragana32.xlsx,6,0,180,12,1,179,l23.jpg,l24.jpg,c,,c,,,,,,,,,,,,,,,,,,,,,,,,,,,,,,,,
,,,,,,,,,,,,,,,,111,2019-06-06_22h24.50.811,Probabilistic Learning,3.1.0,60,,,,,c,1,0.432,1,0,3,2,1,2,hiragana3.xlsx,hiragana31.xlsx,hiragana32.xlsx,6,0,180,13,1,179,l23.jpg,l24.jpg,c,,c,,,,,,,,,,,,,,,,,,,,,,,,,,,,,,,,
,,,,,,,,,,,,,,,,111,2019-06-06_22h24.50.811,Probabilistic Learning,3.1.0,60,,,,,c,1,0.355,1,0,3,2,1,2,hiragana3.xlsx,hiragana31.xlsx,hiragana32.xlsx,6,0,180,11,1,179,l23.jpg,l24.jpg,c,,c,,,,,,,,,,,,,,,,,,,,,,,,,,,,,,,,
,,,,,,,,,,,,,,,,111,2019-06-06_22h24.50.811,Probabilistic Learning,3.1.0,60,,,,,m,1,0.381,1,0,3,2,1,2,hiragana3.xlsx,hiragana31.xlsx,hiragana32.xlsx,6,0,180,14,1,179,l24.jpg,l23.jpg,m,,m,,,,,,,,,,,,,,,,,,,,,,,,,,,,,,,,
,,,,,,,,,,,,,,,,111,2019-06-06_22h24.50.811,Probabilistic Learning,3.1.0,60,,,,,c,1,0.414,1,0,3,2,1,2,hiragana3.xlsx,hiragana31.xlsx,hiragana32.xlsx,6,0,180,1,1,179,l21.jpg,l22.jpg,c,c,,,,,,,,,,,,,,,,,,,,,,,,,,,,,,,,,
,,,,,,,,,,,,,,,,111,2019-06-06_22h24.50.811,Probabilistic Learning,3.1.0,60,,,,,m,1,0.362,1,0,3,2,1,2,hiragana3.xlsx,hiragana31.xlsx,hiragana32.xlsx,6,0,180,25,1,179,l26.jpg,l25.jpg,m,,,m,,,,,,,,,,,,,,,,,,,,,,,,,,,,,,,
,,,,,,,,,,,,,,,,111,2019-06-06_22h24.50.811,Probabilistic Learning,3.1.0,60,,,,,m,1,0.372,1,0,3,2,1,2,hiragana3.xlsx,hiragana31.xlsx,hiragana32.xlsx,6,0,180,24,1,179,l26.jpg,l25.jpg,m,,,m,,,,,,,,,,,,,,,,,,,,,,,,,,,,,,,
,,,,,,,,,,,,,,,,111,2019-06-06_22h24.50.811,Probabilistic Learning,3.1.0,60,,,,,c,1,0.365,1,0,3,2,1,2,hiragana3.xlsx,hiragana31.xlsx,hiragana32.xlsx,6,0,180,10,1,179,l23.jpg,l24.jpg,c,,c,,,,,,,,,,,,,,,,,,,,,,,,,,,,,,,,
,,,,,,,,,,,,,,,,111,2019-06-06_22h24.50.811,Probabilistic Learning,3.1.0,60,,,,,c,1,0.465,1,0,3,2,1,2,hiragana3.xlsx,hiragana31.xlsx,hiragana32.xlsx,6,0,180,20,1,179,l25.jpg,l26.jpg,c,,,c,,,,,,,,,,,,,,,,,,,,,,,,,,,,,,,
,,,,,,,,,,,,,,,,111,2019-06-06_22h24.50.811,Probabilistic Learning,3.1.0,60,,,,,m,0,0.341,1,0,3,2,1,2,hiragana3.xlsx,hiragana31.xlsx,hiragana32.xlsx,6,0,180,28,1,179,l26.jpg,l25.jpg,c,,,m,,,,,,,,,,,,,,,,,,,,,,,,,,,,,,,
,,,,,,,,,,,,,,,,111,2019-06-06_22h24.50.811,Probabilistic Learning,3.1.0,60,,,,,c,0,0.331,1,0,3,2,1,2,hiragana3.xlsx,hiragana31.xlsx,hiragana32.xlsx,6,0,180,7,1,179,l22.jpg,l21.jpg,m,m,,,,,,,,,,,,,,,,,,,,,,,,,,,,,,,,,
,,,,,,,,,,,,,,,,111,2019-06-06_22h24.50.811,Probabilistic Learning,3.1.0,60,,,,,c,0,0.43,1,0,3,2,1,2,hiragana3.xlsx,hiragana31.xlsx,hiragana32.xlsx,6,0,180,19,1,179,l23.jpg,l24.jpg,m,,c,,,,,,,,,,,,,,,,,,,,,,,,,,,,,,,,
,,,,,,,,,,,,,,,,111,2019-06-06_22h24.50.811,Probabilistic Learning,3.1.0,60,,,,,c,1,0.379,1,0,3,2,1,2,hiragana3.xlsx,hiragana31.xlsx,hiragana32.xlsx,6,0,180,2,1,179,l21.jpg,l22.jpg,c,c,,,,,,,,,,,,,,,,,,,,,,,,,,,,,,,,,
,,,,,,,,,,,,,,,,111,2019-06-06_22h24.50.811,Probabilistic Learning,3.1.0,60,,,,,c,1,0.362,1,0,3,2,1,2,hiragana3.xlsx,hiragana31.xlsx,hiragana32.xlsx,6,0,180,20,1,179,l25.jpg,l26.jpg,c,,,c,,,,,,,,,,,,,,,,,,,,,,,,,,,,,,,
,,,,,,,,,,,,,,,,111,2019-06-06_22h24.50.811,Probabilistic Learning,3.1.0,60,,,,,m,1,0.38,1,0,3,2,1,2,hiragana3.xlsx,hiragana31.xlsx,hiragana32.xlsx,6,0,180,24,1,179,l26.jpg,l25.jpg,m,,,m,,,,,,,,,,,,,,,,,,,,,,,,,,,,,,,
,,,,,,,,,,,,,,,,111,2019-06-06_22h24.50.811,Probabilistic Learning,3.1.0,60,,,,,c,1,0.346,1,0,3,2,1,2,hiragana3.xlsx,hiragana31.xlsx,hiragana32.xlsx,6,0,180,22,1,179,l25.jpg,l26.jpg,c,,,c,,,,,,,,,,,,,,,,,,,,,,,,,,,,,,,
,,,,,,,,,,,,,,,,111,2019-06-06_22h24.50.811,Probabilistic Learning,3.1.0,60,,,,,c,1,0.497,1,0,3,2,1,2,hiragana3.xlsx,hiragana31.xlsx,hiragana32.xlsx,6,0,180,10,1,179,l23.jpg,l24.jpg,c,,c,,,,,,,,,,,,,,,,,,,,,,,,,,,,,,,,
,,,,,,,,,,,,,,,,111,2019-06-06_22h24.50.811,Probabilistic Learning,3.1.0,60,,,,,c,0,0.38,1,0,3,2,1,2,hiragana3.xlsx,hiragana31.xlsx,hiragana32.xlsx,6,0,180,8,1,179,l21.jpg,l22.jpg,m,c,,,,,,,,,,,,,,,,,,,,,,,,,,,,,,,,,
,,,,,,,,,,,,,,,,111,2019-06-06_22h24.50.811,Probabilistic Learning,3.1.0,60,,,,,c,1,0.364,1,0,3,2,1,2,hiragana3.xlsx,hiragana31.xlsx,hiragana32.xlsx,6,0,180,3,1,179,l21.jpg,l22.jpg,c,c,,,,,,,,,,,,,,,,,,,,,,,,,,,,,,,,,
,,,,,,,,,,,,,,,,111,2019-06-06_22h24.50.811,Probabilistic Learning,3.1.0,60,,,,,c,1,0.379,1,0,3,2,1,2,hiragana3.xlsx,hiragana31.xlsx,hiragana32.xlsx,6,0,180,13,1,179,l23.jpg,l24.jpg,c,,c,,,,,,,,,,,,,,,,,,,,,,,,,,,,,,,,
,,,,,,,,,,,,,,,,111,2019-06-06_22h24.50.811,Probabilistic Learning,3.1.0,60,,,,,c,1,0.331,1,0,3,2,1,2,hiragana3.xlsx,hiragana31.xlsx,hiragana32.xlsx,6,0,180,12,1,179,l23.jpg,l24.jpg,c,,c,,,,,,,,,,,,,,,,,,,,,,,,,,,,,,,,
,,,,,,,,,,,,,,,,111,2019-06-06_22h24.50.811,Probabilistic Learning,3.1.0,60,,,,,c,0,0.367,1,0,3,2,1,2,hiragana3.xlsx,hiragana31.xlsx,hiragana32.xlsx,6,0,180,6,1,179,l22.jpg,l21.jpg,m,m,,,,,,,,,,,,,,,,,,,,,,,,,,,,,,,,,
,,,,,,,,,,,,,,,,111,2019-06-06_22h24.50.811,Probabilistic Learning,3.1.0,60,,,,,c,1,0.331,1,0,3,2,1,2,hiragana3.xlsx,hiragana31.xlsx,hiragana32.xlsx,6,0,180,11,1,179,l23.jpg,l24.jpg,c,,c,,,,,,,,,,,,,,,,,,,,,,,,,,,,,,,,
,,,,,,,,,,,,,,,,111,2019-06-06_22h24.50.811,Probabilistic Learning,3.1.0,60,,,,,m,0,0.397,1,0,3,2,1,2,hiragana3.xlsx,hiragana31.xlsx,hiragana32.xlsx,6,0,180,28,1,179,l26.jpg,l25.jpg,c,,,m,,,,,,,,,,,,,,,,,,,,,,,,,,,,,,,
,,,,,,,,,,,,,,,,111,2019-06-06_22h24.50.811,Probabilistic Learning,3.1.0,60,,,,,m,1,0.396,1,0,3,2,1,2,hiragana3.xlsx,hiragana31.xlsx,hiragana32.xlsx,6,0,180,25,1,179,l26.jpg,l25.jpg,m,,,m,,,,,,,,,,,,,,,,,,,,,,,,,,,,,,,
,,,,,,,,,,,,,,,,111,2019-06-06_22h24.50.811,Probabilistic Learning,3.1.0,60,,,,,m,1,0.463,1,0,3,2,1,2,hiragana3.xlsx,hiragana31.xlsx,hiragana32.xlsx,6,0,180,14,1,179,l24.jpg,l23.jpg,m,,m,,,,,,,,,,,,,,,,,,,,,,,,,,,,,,,,
,,,,,,,,,,,,,,,,111,2019-06-06_22h24.50.811,Probabilistic Learning,3.1.0,60,,,,,c,1,0.397,1,0,3,2,1,2,hiragana3.xlsx,hiragana31.xlsx,hiragana32.xlsx,6,0,180,21,1,179,l25.jpg,l26.jpg,c,,,c,,,,,,,,,,,,,,,,,,,,,,,,,,,,,,,
,,,,,,,,,,,,,,,,111,2019-06-06_22h24.50.811,Probabilistic Learning,3.1.0,60,,,,,m,1,0.431,1,0,3,2,1,2,hiragana3.xlsx,hiragana31.xlsx,hiragana32.xlsx,6,0,180,16,1,179,l24.jpg,l23.jpg,m,,m,,,,,,,,,,,,,,,,,,,,,,,,,,,,,,,,
,,,,,,,,,,,,,,,,111,2019-06-06_22h24.50.811,Probabilistic Learning,3.1.0,60,,,,,m,1,0.478,1,0,3,2,1,2,hiragana3.xlsx,hiragana31.xlsx,hiragana32.xlsx,6,0,180,5,1,179,l22.jpg,l21.jpg,m,m,,,,,,,,,,,,,,,,,,,,,,,,,,,,,,,,,
,,,,,,,,,,,,,,,,111,2019-06-06_22h24.50.811,Probabilistic Learning,3.1.0,60,,,,,c,0,0.496,1,0,3,2,1,2,hiragana3.xlsx,hiragana31.xlsx,hiragana32.xlsx,6,0,180,26,1,179,l25.jpg,l26.jpg,m,,,c,,,,,,,,,,,,,,,,,,,,,,,,,,,,,,,
,,,,,,,,,,,,,,,,111,2019-06-06_22h24.50.811,Probabilistic Learning,3.1.0,60,,,,,m,0,0.38,1,0,3,2,1,2,hiragana3.xlsx,hiragana31.xlsx,hiragana32.xlsx,6,0,180,17,1,179,l24.jpg,l23.jpg,c,,m,,,,,,,,,,,,,,,,,,,,,,,,,,,,,,,,
,,,,,,,,,,,,,,,,111,2019-06-06_22h24.50.811,Probabilistic Learning,3.1.0,60,,,,,m,0,0.429,1,0,3,2,1,2,hiragana3.xlsx,hiragana31.xlsx,hiragana32.xlsx,6,0,180,9,1,179,l22.jpg,l21.jpg,c,m,,,,,,,,,,,,,,,,,,,,,,,,,,,,,,,,,
,,,,,,,,,,,,,,,,111,2019-06-06_22h24.50.811,Probabilistic Learning,3.1.0,60,,,,,c,1,0.347,1,0,3,2,1,2,hiragana3.xlsx,hiragana31.xlsx,hiragana32.xlsx,6,0,180,0,1,179,l21.jpg,l22.jpg,c,c,,,,,,,,,,,,,,,,,,,,,,,,,,,,,,,,,
,,,,,,,,,,,,,,,,111,2019-06-06_22h24.50.811,Probabilistic Learning,3.1.0,60,,,,,m,0,0.363,1,0,3,2,1,2,hiragana3.xlsx,hiragana31.xlsx,hiragana32.xlsx,6,0,180,29,1,179,l26.jpg,l25.jpg,c,,,m,,,,,,,,,,,,,,,,,,,,,,,,,,,,,,,
,,,,,,,,,,,,,,,,111,2019-06-06_22h24.50.811,Probabilistic Learning,3.1.0,60,,,,,m,0,0.465,1,0,3,2,1,2,hiragana3.xlsx,hiragana31.xlsx,hiragana32.xlsx,6,0,180,18,1,179,l24.jpg,l23.jpg,c,,m,,,,,,,,,,,,,,,,,,,,,,,,,,,,,,,,
,,,,,,,,,,,,,,,,111,2019-06-06_22h24.50.811,Probabilistic Learning,3.1.0,60,,,,,m,1,0.346,1,0,3,2,1,2,hiragana3.xlsx,hiragana31.xlsx,hiragana32.xlsx,6,0,180,7,1,179,l22.jpg,l21.jpg,m,m,,,,,,,,,,,,,,,,,,,,,,,,,,,,,,,,,
,,,,,,,,,,,,,,,,111,2019-06-06_22h24.50.811,Probabilistic Learning,3.1.0,60,,,,,m,1,0.379,1,0,3,2,1,2,hiragana3.xlsx,hiragana31.xlsx,hiragana32.xlsx,6,0,180,4,1,179,l22.jpg,l21.jpg,m,m,,,,,,,,,,,,,,,,,,,,,,,,,,,,,,,,,
,,,,,,,,,,,,,,,,111,2019-06-06_22h24.50.811,Probabilistic Learning,3.1.0,60,,,,,c,1,0.43,1,0,3,2,1,2,hiragana3.xlsx,hiragana31.xlsx,hiragana32.xlsx,6,0,180,1,1,179,l21.jpg,l22.jpg,c,c,,,,,,,,,,,,,,,,,,,,,,,,,,,,,,,,,
,,,,,,,,,,,,,,,,111,2019-06-06_22h24.50.811,Probabilistic Learning,3.1.0,60,,,,,m,1,0.345,1,0,3,2,1,2,hiragana3.xlsx,hiragana31.xlsx,hiragana32.xlsx,6,0,180,15,1,179,l24.jpg,l23.jpg,m,,m,,,,,,,,,,,,,,,,,,,,,,,,,,,,,,,,
,,,,,,,,,,,,,,,,111,2019-06-06_22h24.50.811,Probabilistic Learning,3.1.0,60,,,,,m,1,0.397,1,0,3,2,1,2,hiragana3.xlsx,hiragana31.xlsx,hiragana32.xlsx,6,0,180,23,1,179,l26.jpg,l25.jpg,m,,,m,,,,,,,,,,,,,,,,,,,,,,,,,,,,,,,
,,,,,,,,,,,,,,,,111,2019-06-06_22h24.50.811,Probabilistic Learning,3.1.0,60,,,,,c,0,0.38,1,0,3,2,1,2,hiragana3.xlsx,hiragana31.xlsx,hiragana32.xlsx,,,,,,,,,,,,,space,1.013,space,1.256,m,0.247,2,0,92,6,1,91,l21.jpg,l23.jpg,A,C,c,,,,,,,,,,,,,,
,,,,,,,,,,,,,,,,111,2019-06-06_22h24.50.811,Probabilistic Learning,3.1.0,60,,,,,,,,1,0,3,2,1,2,hiragana3.xlsx,hiragana31.xlsx,hiragana32.xlsx,,,,,,,,,,,,,,,,,m,0.214,2,0,92,0,1,91,l21.jpg,l22.jpg,A,B,,,,,,,,,,,,,,,
,,,,,,,,,,,,,,,,111,2019-06-06_22h24.50.811,Probabilistic Learning,3.1.0,60,,,,,,,,1,0,3,2,1,2,hiragana3.xlsx,hiragana31.xlsx,hiragana32.xlsx,,,,,,,,,,,,,,,,,m,0.165,2,0,92,38,1,91,l23.jpg,l25.jpg,C,E,,,,,,,,,,,,,,,
,,,,,,,,,,,,,,,,111,2019-06-06_22h24.50.811,Probabilistic Learning,3.1.0,60,,,,,,,,1,0,3,2,1,2,hiragana3.xlsx,hiragana31.xlsx,hiragana32.xlsx,,,,,,,,,,,,,,,,,m,0.213,2,0,92,30,1,91,l22.jpg,l25.jpg,B,E,,m,,,,,,,,,,,,,
,,,,,,,,,,,,,,,,111,2019-06-06_22h24.50.811,Probabilistic Learning,3.1.0,60,,,,,,,,1,0,3,2,1,2,hiragana3.xlsx,hiragana31.xlsx,hiragana32.xlsx,,,,,,,,,,,,,,,,,m,0.147,2,0,92,14,1,91,l21.jpg,l25.jpg,A,E,c,,,,,,,,,,,,,,
,,,,,,,,,,,,,,,,111,2019-06-06_22h24.50.811,Probabilistic Learning,3.1.0,60,,,,,,,,1,0,3,2,1,2,hiragana3.xlsx,hiragana31.xlsx,hiragana32.xlsx,,,,,,,,,,,,,,,,,m,0.213,2,0,92,45,1,91,l26.jpg,l24.jpg,f,d,,,,,,,,,,,,,,,
,,,,,,,,,,,,,,,,111,2019-06-06_22h24.50.811,Probabilistic Learning,3.1.0,60,,,,,,,,1,0,3,2,1,2,hiragana3.xlsx,hiragana31.xlsx,hiragana32.xlsx,,,,,,,,,,,,,,,,,m,0.215,2,0,92,44,1,91,l24.jpg,l26.jpg,d,f,,,,,,,,,,,,,,,
,,,,,,,,,,,,,,,,111,2019-06-06_22h24.50.811,Probabilistic Learning,3.1.0,60,,,,,,,,1,0,3,2,1,2,hiragana3.xlsx,hiragana31.xlsx,hiragana32.xlsx,,,,,,,,,,,,,,,,,m,0.213,2,0,92,21,1,91,l26.jpg,l21.jpg,F,A,m,,,,,,,,,,,,,,
,,,,,,,,,,,,,,,,111,2019-06-06_22h24.50.811,Probabilistic Learning,3.1.0,60,,,,,,,,1,0,3,2,1,2,hiragana3.xlsx,hiragana31.xlsx,hiragana32.xlsx,,,,,,,,,,,,,,,,,m,0.048,2,0,92,17,1,91,l25.jpg,l21.jpg,E,A,m,,,,,,,,,,,,,,
,,,,,,,,,,,,,,,,111,2019-06-06_22h24.50.811,Probabilistic Learning,3.1.0,60,,,,,,,,1,0,3,2,1,2,hiragana3.xlsx,hiragana31.xlsx,hiragana32.xlsx,,,,,,,,,,,,,,,,,m,0.099,2,0,92,18,1,91,l21.jpg,l26.jpg,A,F,c,,,,,,,,,,,,,,
,,,,,,,,,,,,,,,,111,2019-06-06_22h24.50.811,Probabilistic Learning,3.1.0,60,,,,,,,,1,0,3,2,1,2,hiragana3.xlsx,hiragana31.xlsx,hiragana32.xlsx,,,,,,,,,,,,,,,,,m,0.048,2,0,92,13,1,91,l24.jpg,l21.jpg,D,A,m,,,,,,,,,,,,,,
,,,,,,,,,,,,,,,,111,2019-06-06_22h24.50.811,Probabilistic Learning,3.1.0,60,,,,,,,,1,0,3,2,1,2,hiragana3.xlsx,hiragana31.xlsx,hiragana32.xlsx,,,,,,,,,,,,,,,,,m,0.214,2,0,92,24,1,91,l23.jpg,l22.jpg,C,B,,c,,,,,,,,,,,,,
,,,,,,,,,,,,,,,,111,2019-06-06_22h24.50.811,Probabilistic Learning,3.1.0,60,,,,,,,,1,0,3,2,1,2,hiragana3.xlsx,hiragana31.xlsx,hiragana32.xlsx,,,,,,,,,,,,,,,,,m,0.23,2,0,92,20,1,91,l26.jpg,l21.jpg,F,A,m,,,,,,,,,,,,,,
,,,,,,,,,,,,,,,,111,2019-06-06_22h24.50.811,Probabilistic Learning,3.1.0,60,,,,,,,,1,0,3,2,1,2,hiragana3.xlsx,hiragana31.xlsx,hiragana32.xlsx,,,,,,,,,,,,,,,,,m,0.048,2,0,92,28,1,91,l24.jpg,l22.jpg,D,B,,c,,,,,,,,,,,,,
,,,,,,,,,,,,,,,,111,2019-06-06_22h24.50.811,Probabilistic Learning,3.1.0,60,,,,,,,,1,0,3,2,1,2,hiragana3.xlsx,hiragana31.xlsx,hiragana32.xlsx,,,,,,,,,,,,,,,,,m,0.164,2,0,92,2,1,91,l23.jpg,l24.jpg,C,D,,,,,,,,,,,,,,,
,,,,,,,,,,,,,,,,111,2019-06-06_22h24.50.811,Probabilistic Learning,3.1.0,60,,,,,,,,1,0,3,2,1,2,hiragana3.xlsx,hiragana31.xlsx,hiragana32.xlsx,,,,,,,,,,,,,,,,,m,0.104,2,0,92,43,1,91,l25.jpg,l24.jpg,e,d,,,,,,,,,,,,,,,
,,,,,,,,,,,,,,,,111,2019-06-06_22h24.50.811,Probabilistic Learning,3.1.0,60,,,,,,,,1,0,3,2,1,2,hiragana3.xlsx,hiragana31.xlsx,hiragana32.xlsx,,,,,,,,,,,,,,,,,m,0.263,2,0,92,31,1,91,l22.jpg,l25.jpg,B,E,,m,,,,,,,,,,,,,
,,,,,,,,,,,,,,,,111,2019-06-06_22h24.50.811,Probabilistic Learning,3.1.0,60,,,,,,,,1,0,3,2,1,2,hiragana3.xlsx,hiragana31.xlsx,hiragana32.xlsx,,,,,,,,,,,,,,,,,m,0.13,2,0,92,40,1,91,l23.jpg,l26.jpg,c,f,,,,,,,,,,,,,,,
,,,,,,,,,,,,,,,,111,2019-06-06_22h24.50.811,Probabilistic Learning,3.1.0,60,,,,,,,,1,0,3,2,1,2,hiragana3.xlsx,hiragana31.xlsx,hiragana32.xlsx,,,,,,,,,,,,,,,,,m,0.214,2,0,92,39,1,91,l25.jpg,l23.jpg,e,c,,,,,,,,,,,,,,,
,,,,,,,,,,,,,,,,111,2019-06-06_22h24.50.811,Probabilistic Learning,3.1.0,60,,,,,,,,1,0,3,2,1,2,hiragana3.xlsx,hiragana31.xlsx,hiragana32.xlsx,,,,,,,,,,,,,,,,,m,0.262,2,0,92,11,1,91,l21.jpg,l24.jpg,A,D,c,,,,,,,,,,,,,,
,,,,,,,,,,,,,,,,111,2019-06-06_22h24.50.811,Probabilistic Learning,3.1.0,60,,,,,,,,1,0,3,2,1,2,hiragana3.xlsx,hiragana31.xlsx,hiragana32.xlsx,,,,,,,,,,,,,,,,,m,0.246,2,0,92,27,1,91,l22.jpg,l24.jpg,B,D,,m,,,,,,,,,,,,,
,,,,,,,,,,,,,,,,111,2019-06-06_22h24.50.811,Probabilistic Learning,3.1.0,60,,,,,,,,1,0,3,2,1,2,hiragana3.xlsx,hiragana31.xlsx,hiragana32.xlsx,,,,,,,,,,,,,,,,,m,0.228,2,0,92,5,1,91,l26.jpg,l25.jpg,F,E,,,,,,,,,,,,,,,
,,,,,,,,,,,,,,,,111,2019-06-06_22h24.50.811,Probabilistic Learning,3.1.0,60,,,,,,,,1,0,3,2,1,2,hiragana3.xlsx,hiragana31.xlsx,hiragana32.xlsx,,,,,,,,,,,,,,,,,m,0.013,2,0,92,1,1,91,l22.jpg,l21.jpg,B,A,,,,,,,,,,,,,,,
,,,,,,,,,,,,,,,,111,2019-06-06_22h24.50.811,Probabilistic Learning,3.1.0,60,,,,,,,,1,0,3,2,1,2,hiragana3.xlsx,hiragana31.xlsx,hiragana32.xlsx,,,,,,,,,,,,,,,,,m,0.114,2,0,92,8,1,91,l23.jpg,l21.jpg,C,A,m,,,,,,,,,,,,,,
,,,,,,,,,,,,,,,,111,2019-06-06_22h24.50.811,Probabilistic Learning,3.1.0,60,,,,,,,,1,0,3,2,1,2,hiragana3.xlsx,hiragana31.xlsx,hiragana32.xlsx,,,,,,,,,,,,,,,,,m,0.18,2,0,92,32,1,91,l25.jpg,l22.jpg,E,B,,c,,,,,,,,,,,,,
,,,,,,,,,,,,,,,,111,2019-06-06_22h24.50.811,Probabilistic Learning,3.1.0,60,,,,,,,,1,0,3,2,1,2,hiragana3.xlsx,hiragana31.xlsx,hiragana32.xlsx,,,,,,,,,,,,,,,,,m,0.23,2,0,92,35,1,91,l22.jpg,l26.jpg,B,F,,m,,,,,,,,,,,,,
,,,,,,,,,,,,,,,,111,2019-06-06_22h24.50.811,Probabilistic Learning,3.1.0,60,,,,,,,,1,0,3,2,1,2,hiragana3.xlsx,hiragana31.xlsx,hiragana32.xlsx,,,,,,,,,,,,,,,,,m,0.097,2,0,92,16,1,91,l25.jpg,l21.jpg,E,A,m,,,,,,,,,,,,,,
,,,,,,,,,,,,,,,,111,2019-06-06_22h24.50.811,Probabilistic Learning,3.1.0,60,,,,,,,,1,0,3,2,1,2,hiragana3.xlsx,hiragana31.xlsx,hiragana32.xlsx,,,,,,,,,,,,,,,,,m,0.212,2,0,92,42,1,91,l24.jpg,l25.jpg,d,e,,,,,,,,,,,,,,,
,,,,,,,,,,,,,,,,111,2019-06-06_22h24.50.811,Probabilistic Learning,3.1.0,60,,,,,,,,1,0,3,2,1,2,hiragana3.xlsx,hiragana31.xlsx,hiragana32.xlsx,,,,,,,,,,,,,,,,,m,0.212,2,0,92,3,1,91,l24.jpg,l23.jpg,D,C,,,,,,,,,,,,,,,
,,,,,,,,,,,,,,,,111,2019-06-06_22h24.50.811,Probabilistic Learning,3.1.0,60,,,,,,,,1,0,3,2,1,2,hiragana3.xlsx,hiragana31.xlsx,hiragana32.xlsx,,,,,,,,,,,,,,,,,m,0.096,2,0,92,12,1,91,l24.jpg,l21.jpg,D,A,m,,,,,,,,,,,,,,
,,,,,,,,,,,,,,,,111,2019-06-06_22h24.50.811,Probabilistic Learning,3.1.0,60,,,,,,,,1,0,3,2,1,2,hiragana3.xlsx,hiragana31.xlsx,hiragana32.xlsx,,,,,,,,,,,,,,,,,m,0.229,2,0,92,26,1,91,l22.jpg,l24.jpg,B,D,,m,,,,,,,,,,,,,
,,,,,,,,,,,,,,,,111,2019-06-06_22h24.50.811,Probabilistic Learning,3.1.0,60,,,,,,,,1,0,3,2,1,2,hiragana3.xlsx,hiragana31.xlsx,hiragana32.xlsx,,,,,,,,,,,,,,,,,m,0.246,2,0,92,15,1,91,l21.jpg,l25.jpg,A,E,c,,,,,,,,,,,,,,
,,,,,,,,,,,,,,,,111,2019-06-06_22h24.50.811,Probabilistic Learning,3.1.0,60,,,,,,,,1,0,3,2,1,2,hiragana3.xlsx,hiragana31.xlsx,hiragana32.xlsx,,,,,,,,,,,,,,,,,m,0.196,2,0,92,7,1,91,l21.jpg,l23.jpg,A,C,c,,,,,,,,,,,,,,
,,,,,,,,,,,,,,,,111,2019-06-06_22h24.50.811,Probabilistic Learning,3.1.0,60,,,,,,,,1,0,3,2,1,2,hiragana3.xlsx,hiragana31.xlsx,hiragana32.xlsx,,,,,,,,,,,,,,,,,m,0.246,2,0,92,9,1,91,l23.jpg,l21.jpg,C,A,m,,,,,,,,,,,,,,
,,,,,,,,,,,,,,,,111,2019-06-06_22h24.50.811,Probabilistic Learning,3.1.0,60,,,,,,,,1,0,3,2,1,2,hiragana3.xlsx,hiragana31.xlsx,hiragana32.xlsx,,,,,,,,,,,,,,,,,m,0.146,2,0,92,23,1,91,l22.jpg,l23.jpg,B,C,,m,,,,,,,,,,,,,
,,,,,,,,,,,,,,,,111,2019-06-06_22h24.50.811,Probabilistic Learning,3.1.0,60,,,,,,,,1,0,3,2,1,2,hiragana3.xlsx,hiragana31.xlsx,hiragana32.xlsx,,,,,,,,,,,,,,,,,m,0.229,2,0,92,4,1,91,l25.jpg,l26.jpg,E,F,,,,,,,,,,,,,,,
,,,,,,,,,,,,,,,,111,2019-06-06_22h24.50.811,Probabilistic Learning,3.1.0,60,,,,,,,,1,0,3,2,1,2,hiragana3.xlsx,hiragana31.xlsx,hiragana32.xlsx,,,,,,,,,,,,,,,,,m,0.046,2,0,92,25,1,91,l23.jpg,l22.jpg,C,B,,c,,,,,,,,,,,,,
,,,,,,,,,,,,,,,,111,2019-06-06_22h24.50.811,Probabilistic Learning,3.1.0,60,,,,,,,,1,0,3,2,1,2,hiragana3.xlsx,hiragana31.xlsx,hiragana32.xlsx,,,,,,,,,,,,,,,,,m,0.246,2,0,92,10,1,91,l21.jpg,l24.jpg,A,D,c,,,,,,,,,,,,,,
,,,,,,,,,,,,,,,,111,2019-06-06_22h24.50.811,Probabilistic Learning,3.1.0,60,,,,,,,,1,0,3,2,1,2,hiragana3.xlsx,hiragana31.xlsx,hiragana32.xlsx,,,,,,,,,,,,,,,,,m,0.196,2,0,92,34,1,91,l22.jpg,l26.jpg,B,F,,m,,,,,,,,,,,,,
,,,,,,,,,,,,,,,,111,2019-06-06_22h24.50.811,Probabilistic Learning,3.1.0,60,,,,,,,,1,0,3,2,1,2,hiragana3.xlsx,hiragana31.xlsx,hiragana32.xlsx,,,,,,,,,,,,,,,,,m,0.247,2,0,92,37,1,91,l26.jpg,l22.jpg,F,B,,c,,,,,,,,,,,,,
,,,,,,,,,,,,,,,,111,2019-06-06_22h24.50.811,Probabilistic Learning,3.1.0,60,,,,,,,,1,0,3,2,1,2,hiragana3.xlsx,hiragana31.xlsx,hiragana32.xlsx,,,,,,,,,,,,,,,,,m,0.246,2,0,92,22,1,91,l22.jpg,l23.jpg,B,C,,m,,,,,,,,,,,,,
,,,,,,,,,,,,,,,,111,2019-06-06_22h24.50.811,Probabilistic Learning,3.1.0,60,,,,,,,,1,0,3,2,1,2,hiragana3.xlsx,hiragana31.xlsx,hiragana32.xlsx,,,,,,,,,,,,,,,,,m,0.062,2,0,92,29,1,91,l24.jpg,l22.jpg,D,B,,c,,,,,,,,,,,,,
,,,,,,,,,,,,,,,,111,2019-06-06_22h24.50.811,Probabilistic Learning,3.1.0,60,,,,,,,,1,0,3,2,1,2,hiragana3.xlsx,hiragana31.xlsx,hiragana32.xlsx,,,,,,,,,,,,,,,,,m,0.247,2,0,92,36,1,91,l26.jpg,l22.jpg,F,B,,c,,,,,,,,,,,,,
,,,,,,,,,,,,,,,,111,2019-06-06_22h24.50.811,Probabilistic Learning,3.1.0,60,,,,,,,,1,0,3,2,1,2,hiragana3.xlsx,hiragana31.xlsx,hiragana32.xlsx,,,,,,,,,,,,,,,,,m,0.214,2,0,92,33,1,91,l25.jpg,l22.jpg,E,B,,c,,,,,,,,,,,,,
,,,,,,,,,,,,,,,,111,2019-06-06_22h24.50.811,Probabilistic Learning,3.1.0,60,,,,,,,,1,0,3,2,1,2,hiragana3.xlsx,hiragana31.xlsx,hiragana32.xlsx,,,,,,,,,,,,,,,,,m,0.264,2,0,92,19,1,91,l21.jpg,l26.jpg,A,F,c,,,,,,,,,,,,,,
,,,,,,,,,,,,,,,,111,2019-06-06_22h24.50.811,Probabilistic Learning,3.1.0,60,,,,,,,,1,0,3,2,1,2,hiragana3.xlsx,hiragana31.xlsx,hiragana32.xlsx,,,,,,,,,,,,,,,,,m,0.167,2,0,92,41,1,91,l26.jpg,l23.jpg,f,c,,,,,,,,,,,,,,,
,,,,,,,,,,,,,,,,111,2019-06-06_22h24.50.811,Probabilistic Learning,3.1.0,60,,,,,,,,1,0,3,2,1,2,hiragana3.xlsx,hiragana31.xlsx,hiragana32.xlsx,,,,,,,,,,,,,,,,,m,0.212,2,0,92,30,1,91,l22.jpg,l25.jpg,B,E,,m,,,,,,,,,,,,,
,,,,,,,,,,,,,,,,111,2019-06-06_22h24.50.811,Probabilistic Learning,3.1.0,60,,,,,,,,1,0,3,2,1,2,hiragana3.xlsx,hiragana31.xlsx,hiragana32.xlsx,,,,,,,,,,,,,,,,,m,0.236,2,0,92,25,1,91,l23.jpg,l22.jpg,C,B,,c,,,,,,,,,,,,,
,,,,,,,,,,,,,,,,111,2019-06-06_22h24.50.811,Probabilistic Learning,3.1.0,60,,,,,,,,1,0,3,2,1,2,hiragana3.xlsx,hiragana31.xlsx,hiragana32.xlsx,,,,,,,,,,,,,,,,,m,0.154,2,0,92,45,1,91,l26.jpg,l24.jpg,f,d,,,,,,,,,,,,,,,
,,,,,,,,,,,,,,,,111,2019-06-06_22h24.50.811,Probabilistic Learning,3.1.0,60,,,,,,,,1,0,3,2,1,2,hiragana3.xlsx,hiragana31.xlsx,hiragana32.xlsx,,,,,,,,,,,,,,,,,m,0.13,2,0,92,24,1,91,l23.jpg,l22.jpg,C,B,,c,,,,,,,,,,,,,
,,,,,,,,,,,,,,,,111,2019-06-06_22h24.50.811,Probabilistic Learning,3.1.0,60,,,,,,,,1,0,3,2,1,2,hiragana3.xlsx,hiragana31.xlsx,hiragana32.xlsx,,,,,,,,,,,,,,,,,m,0.147,2,0,92,9,1,91,l23.jpg,l21.jpg,C,A,m,,,,,,,,,,,,,,
,,,,,,,,,,,,,,,,111,2019-06-06_22h24.50.811,Probabilistic Learning,3.1.0,60,,,,,,,,1,0,3,2,1,2,hiragana3.xlsx,hiragana31.xlsx,hiragana32.xlsx,,,,,,,,,,,,,,,,,m,0.246,2,0,92,10,1,91,l21.jpg,l24.jpg,A,D,c,,,,,,,,,,,,,,
,,,,,,,,,,,,,,,,111,2019-06-06_22h24.50.811,Probabilistic Learning,3.1.0,60,,,,,,,,1,0,3,2,1,2,hiragana3.xlsx,hiragana31.xlsx,hiragana32.xlsx,,,,,,,,,,,,,,,,,m,0.109,2,0,92,31,1,91,l22.jpg,l25.jpg,B,E,,m,,,,,,,,,,,,,
,,,,,,,,,,,,,,,,111,2019-06-06_22h24.50.811,Probabilistic Learning,3.1.0,60,,,,,,,,1,0,3,2,1,2,hiragana3.xlsx,hiragana31.xlsx,hiragana32.xlsx,,,,,,,,,,,,,,,,,m,0.097,2,0,92,16,1,91,l25.jpg,l21.jpg,E,A,m,,,,,,,,,,,,,,
,,,,,,,,,,,,,,,,111,2019-06-06_22h24.50.811,Probabilistic Learning,3.1.0,60,,,,,,,,1,0,3,2,1,2,hiragana3.xlsx,hiragana31.xlsx,hiragana32.xlsx,,,,,,,,,,,,,,,,,m,0.113,2,0,92,26,1,91,l22.jpg,l24.jpg,B,D,,m,,,,,,,,,,,,,
,,,,,,,,,,,,,,,,111,2019-06-06_22h24.50.811,Probabilistic Learning,3.1.0,60,,,,,,,,1,0,3,2,1,2,hiragana3.xlsx,hiragana31.xlsx,hiragana32.xlsx,,,,,,,,,,,,,,,,,m,0.13,2,0,92,0,1,91,l21.jpg,l22.jpg,A,B,,,,,,,,,,,,,,,
,,,,,,,,,,,,,,,,111,2019-06-06_22h24.50.811,Probabilistic Learning,3.1.0,60,,,,,,,,1,0,3,2,1,2,hiragana3.xlsx,hiragana31.xlsx,hiragana32.xlsx,,,,,,,,,,,,,,,,,m,0.215,2,0,92,4,1,91,l25.jpg,l26.jpg,E,F,,,,,,,,,,,,,,,
,,,,,,,,,,,,,,,,111,2019-06-06_22h24.50.811,Probabilistic Learning,3.1.0,60,,,,,,,,1,0,3,2,1,2,hiragana3.xlsx,hiragana31.xlsx,hiragana32.xlsx,,,,,,,,,,,,,,,,,m,0.08,2,0,92,36,1,91,l26.jpg,l22.jpg,F,B,,c,,,,,,,,,,,,,
,,,,,,,,,,,,,,,,111,2019-06-06_22h24.50.811,Probabilistic Learning,3.1.0,60,,,,,,,,1,0,3,2,1,2,hiragana3.xlsx,hiragana31.xlsx,hiragana32.xlsx,,,,,,,,,,,,,,,,,m,0.213,2,0,92,17,1,91,l25.jpg,l21.jpg,E,A,m,,,,,,,,,,,,,,
,,,,,,,,,,,,,,,,111,2019-06-06_22h24.50.811,Probabilistic Learning,3.1.0,60,,,,,,,,1,0,3,2,1,2,hiragana3.xlsx,hiragana31.xlsx,hiragana32.xlsx,,,,,,,,,,,,,,,,,m,0.013,2,0,92,32,1,91,l25.jpg,l22.jpg,E,B,,c,,,,,,,,,,,,,
,,,,,,,,,,,,,,,,111,2019-06-06_22h24.50.811,Probabilistic Learning,3.1.0,60,,,,,,,,1,0,3,2,1,2,hiragana3.xlsx,hiragana31.xlsx,hiragana32.xlsx,,,,,,,,,,,,,,,,,m,0.213,2,0,92,22,1,91,l22.jpg,l23.jpg,B,C,,m,,,,,,,,,,,,,
,,,,,,,,,,,,,,,,111,2019-06-06_22h24.50.811,Probabilistic Learning,3.1.0,60,,,,,,,,1,0,3,2,1,2,hiragana3.xlsx,hiragana31.xlsx,hiragana32.xlsx,,,,,,,,,,,,,,,,,m,0.229,2,0,92,20,1,91,l26.jpg,l21.jpg,F,A,m,,,,,,,,,,,,,,
,,,,,,,,,,,,,,,,111,2019-06-06_22h24.50.811,Probabilistic Learning,3.1.0,60,,,,,,,,1,0,3,2,1,2,hiragana3.xlsx,hiragana31.xlsx,hiragana32.xlsx,,,,,,,,,,,,,,,,,m,0.217,2,0,92,12,1,91,l24.jpg,l21.jpg,D,A,m,,,,,,,,,,,,,,
,,,,,,,,,,,,,,,,111,2019-06-06_22h24.50.811,Probabilistic Learning,3.1.0,60,,,,,,,,1,0,3,2,1,2,hiragana3.xlsx,hiragana31.xlsx,hiragana32.xlsx,,,,,,,,,,,,,,,,,m,0.045,2,0,92,38,1,91,l23.jpg,l25.jpg,C,E,,,,,,,,,,,,,,,
,,,,,,,,,,,,,,,,111,2019-06-06_22h24.50.811,Probabilistic Learning,3.1.0,60,,,,,,,,1,0,3,2,1,2,hiragana3.xlsx,hiragana31.xlsx,hiragana32.xlsx,,,,,,,,,,,,,,,,,m,0.163,2,0,92,1,1,91,l22.jpg,l21.jpg,B,A,,,,,,,,,,,,,,,
,,,,,,,,,,,,,,,,111,2019-06-06_22h24.50.811,Probabilistic Learning,3.1.0,60,,,,,,,,1,0,3,2,1,2,hiragana3.xlsx,hiragana31.xlsx,hiragana32.xlsx,,,,,,,,,,,,,,,,,m,0.129,2,0,92,11,1,91,l21.jpg,l24.jpg,A,D,c,,,,,,,,,,,,,,
,,,,,,,,,,,,,,,,111,2019-06-06_22h24.50.811,Probabilistic Learning,3.1.0,60,,,,,,,,1,0,3,2,1,2,hiragana3.xlsx,hiragana31.xlsx,hiragana32.xlsx,,,,,,,,,,,,,,,,,m,0.246,2,0,92,27,1,91,l22.jpg,l24.jpg,B,D,,m,,,,,,,,,,,,,
,,,,,,,,,,,,,,,,111,2019-06-06_22h24.50.811,Probabilistic Learning,3.1.0,60,,,,,,,,1,0,3,2,1,2,hiragana3.xlsx,hiragana31.xlsx,hiragana32.xlsx,,,,,,,,,,,,,,,,,m,0.014,2,0,92,15,1,91,l21.jpg,l25.jpg,A,E,c,,,,,,,,,,,,,,
,,,,,,,,,,,,,,,,111,2019-06-06_22h24.50.811,Probabilistic Learning,3.1.0,60,,,,,,,,1,0,3,2,1,2,hiragana3.xlsx,hiragana31.xlsx,hiragana32.xlsx,,,,,,,,,,,,,,,,,m,0.331,2,0,92,39,1,91,l25.jpg,l23.jpg,e,c,,,,,,,,,,,,,,,
,,,,,,,,,,,,,,,,111,2019-06-06_22h24.50.811,Probabilistic Learning,3.1.0,60,,,,,,,,1,0,3,2,1,2,hiragana3.xlsx,hiragana31.xlsx,hiragana32.xlsx,,,,,,,,,,,,,,,,,m,0.23,2,0,92,29,1,91,l24.jpg,l22.jpg,D,B,,c,,,,,,,,,,,,,
,,,,,,,,,,,,,,,,111,2019-06-06_22h24.50.811,Probabilistic Learning,3.1.0,60,,,,,,,,1,0,3,2,1,2,hiragana3.xlsx,hiragana31.xlsx,hiragana32.xlsx,,,,,,,,,,,,,,,,,m,0.025,2,0,92,43,1,91,l25.jpg,l24.jpg,e,d,,,,,,,,,,,,,,,
,,,,,,,,,,,,,,,,111,2019-06-06_22h24.50.811,Probabilistic Learning,3.1.0,60,,,,,,,,1,0,3,2,1,2,hiragana3.xlsx,hiragana31.xlsx,hiragana32.xlsx,,,,,,,,,,,,,,,,,m,0.214,2,0,92,23,1,91,l22.jpg,l23.jpg,B,C,,m,,,,,,,,,,,,,
,,,,,,,,,,,,,,,,111,2019-06-06_22h24.50.811,Probabilistic Learning,3.1.0,60,,,,,,,,1,0,3,2,1,2,hiragana3.xlsx,hiragana31.xlsx,hiragana32.xlsx,,,,,,,,,,,,,,,,,m,0.078,2,0,92,19,1,91,l21.jpg,l26.jpg,A,F,c,,,,,,,,,,,,,,
,,,,,,,,,,,,,,,,111,2019-06-06_22h24.50.811,Probabilistic Learning,3.1.0,60,,,,,,,,1,0,3,2,1,2,hiragana3.xlsx,hiragana31.xlsx,hiragana32.xlsx,,,,,,,,,,,,,,,,,m,0.198,2,0,92,44,1,91,l24.jpg,l26.jpg,d,f,,,,,,,,,,,,,,,
,,,,,,,,,,,,,,,,111,2019-06-06_22h24.50.811,Probabilistic Learning,3.1.0,60,,,,,,,,1,0,3,2,1,2,hiragana3.xlsx,hiragana31.xlsx,hiragana32.xlsx,,,,,,,,,,,,,,,,,m,0.18,2,0,92,40,1,91,l23.jpg,l26.jpg,c,f,,,,,,,,,,,,,,,
,,,,,,,,,,,,,,,,111,2019-06-06_22h24.50.811,Probabilistic Learning,3.1.0,60,,,,,,,,1,0,3,2,1,2,hiragana3.xlsx,hiragana31.xlsx,hiragana32.xlsx,,,,,,,,,,,,,,,,,m,0.231,2,0,92,42,1,91,l24.jpg,l25.jpg,d,e,,,,,,,,,,,,,,,
,,,,,,,,,,,,,,,,111,2019-06-06_22h24.50.811,Probabilistic Learning,3.1.0,60,,,,,,,,1,0,3,2,1,2,hiragana3.xlsx,hiragana31.xlsx,hiragana32.xlsx,,,,,,,,,,,,,,,,,m,0.049,2,0,92,35,1,91,l22.jpg,l26.jpg,B,F,,m,,,,,,,,,,,,,
,,,,,,,,,,,,,,,,111,2019-06-06_22h24.50.811,Probabilistic Learning,3.1.0,60,,,,,,,,1,0,3,2,1,2,hiragana3.xlsx,hiragana31.xlsx,hiragana32.xlsx,,,,,,,,,,,,,,,,,m,0.082,2,0,92,2,1,91,l23.jpg,l24.jpg,C,D,,,,,,,,,,,,,,,
,,,,,,,,,,,,,,,,111,2019-06-06_22h24.50.811,Probabilistic Learning,3.1.0,60,,,,,,,,1,0,3,2,1,2,hiragana3.xlsx,hiragana31.xlsx,hiragana32.xlsx,,,,,,,,,,,,,,,,,m,0.231,2,0,92,41,1,91,l26.jpg,l23.jpg,f,c,,,,,,,,,,,,,,,
,,,,,,,,,,,,,,,,111,2019-06-06_22h24.50.811,Probabilistic Learning,3.1.0,60,,,,,,,,1,0,3,2,1,2,hiragana3.xlsx,hiragana31.xlsx,hiragana32.xlsx,,,,,,,,,,,,,,,,,m,0.146,2,0,92,13,1,91,l24.jpg,l21.jpg,D,A,m,,,,,,,,,,,,,,
,,,,,,,,,,,,,,,,111,2019-06-06_22h24.50.811,Probabilistic Learning,3.1.0,60,,,,,,,,1,0,3,2,1,2,hiragana3.xlsx,hiragana31.xlsx,hiragana32.xlsx,,,,,,,,,,,,,,,,,m,0.146,2,0,92,6,1,91,l21.jpg,l23.jpg,A,C,c,,,,,,,,,,,,,,
,,,,,,,,,,,,,,,,111,2019-06-06_22h24.50.811,Probabilistic Learning,3.1.0,60,,,,,,,,1,0,3,2,1,2,hiragana3.xlsx,hiragana31.xlsx,hiragana32.xlsx,,,,,,,,,,,,,,,,,m,0.23,2,0,92,14,1,91,l21.jpg,l25.jpg,A,E,c,,,,,,,,,,,,,,
,,,,,,,,,,,,,,,,111,2019-06-06_22h24.50.811,Probabilistic Learning,3.1.0,60,,,,,,,,1,0,3,2,1,2,hiragana3.xlsx,hiragana31.xlsx,hiragana32.xlsx,,,,,,,,,,,,,,,,,m,0.214,2,0,92,21,1,91,l26.jpg,l21.jpg,F,A,m,,,,,,,,,,,,,,
,,,,,,,,,,,,,,,,111,2019-06-06_22h24.50.811,Probabilistic Learning,3.1.0,60,,,,,,,,1,0,3,2,1,2,hiragana3.xlsx,hiragana31.xlsx,hiragana32.xlsx,,,,,,,,,,,,,,,,,m,0.148,2,0,92,7,1,91,l21.jpg,l23.jpg,A,C,c,,,,,,,,,,,,,,
,,,,,,,,,,,,,,,,111,2019-06-06_22h24.50.811,Probabilistic Learning,3.1.0,60,,,,,,,,1,0,3,2,1,2,hiragana3.xlsx,hiragana31.xlsx,hiragana32.xlsx,,,,,,,,,,,,,,,,,m,0.213,2,0,92,3,1,91,l24.jpg,l23.jpg,D,C,,,,,,,,,,,,,,,
,,,,,,,,,,,,,,,,111,2019-06-06_22h24.50.811,Probabilistic Learning,3.1.0,60,,,,,,,,1,0,3,2,1,2,hiragana3.xlsx,hiragana31.xlsx,hiragana32.xlsx,,,,,,,,,,,,,,,,,m,0.214,2,0,92,33,1,91,l25.jpg,l22.jpg,E,B,,c,,,,,,,,,,,,,
,,,,,,,,,,,,,,,,111,2019-06-06_22h24.50.811,Probabilistic Learning,3.1.0,60,,,,,,,,1,0,3,2,1,2,hiragana3.xlsx,hiragana31.xlsx,hiragana32.xlsx,,,,,,,,,,,,,,,,,m,0.18,2,0,92,28,1,91,l24.jpg,l22.jpg,D,B,,c,,,,,,,,,,,,,
,,,,,,,,,,,,,,,,111,2019-06-06_22h24.50.811,Probabilistic Learning,3.1.0,60,,,,,,,,1,0,3,2,1,2,hiragana3.xlsx,hiragana31.xlsx,hiragana32.xlsx,,,,,,,,,,,,,,,,,m,0.232,2,0,92,34,1,91,l22.jpg,l26.jpg,B,F,,m,,,,,,,,,,,,,
,,,,,,,,,,,,,,,,111,2019-06-06_22h24.50.811,Probabilistic Learning,3.1.0,60,,,,,,,,1,0,3,2,1,2,hiragana3.xlsx,hiragana31.xlsx,hiragana32.xlsx,,,,,,,,,,,,,,,,,m,0.165,2,0,92,5,1,91,l26.jpg,l25.jpg,F,E,,,,,,,,,,,,,,,
,,,,,,,,,,,,,,,,111,2019-06-06_22h24.50.811,Probabilistic Learning,3.1.0,60,,,,,,,,1,0,3,2,1,2,hiragana3.xlsx,hiragana31.xlsx,hiragana32.xlsx,,,,,,,,,,,,,,,,,m,0.212,2,0,92,18,1,91,l21.jpg,l26.jpg,A,F,c,,,,,,,,,,,,,,
,,,,,,,,,,,,,,,,111,2019-06-06_22h24.50.811,Probabilistic Learning,3.1.0,60,,,,,,,,1,0,3,2,1,2,hiragana3.xlsx,hiragana31.xlsx,hiragana32.xlsx,,,,,,,,,,,,,,,,,m,0.197,2,0,92,8,1,91,l23.jpg,l21.jpg,C,A,m,,,,,,,,,,,,,,
,,,,,,,,,,,,,,,,111,2019-06-06_22h24.50.811,Probabilistic Learning,3.1.0,60,,,,,,,,1,0,3,2,1,2,hiragana3.xlsx,hiragana31.xlsx,hiragana32.xlsx,,,,,,,,,,,,,,,,,m,0.165,2,0,92,37,1,91,l26.jpg,l22.jpg,F,B,,c,,,,,,,,,,,,,
,,,,,,,,,,,,,,,,111,2019-06-06_22h24.50.811,Probabilistic Learning,3.1.0,60,,,,,,,,1,0,3,2,1,2,hiragana3.xlsx,hiragana31.xlsx,hiragana32.xlsx,,,,,,,,,,,,,,,,,,,,,,,,,,,,,,,space,1.089,6,11.886,1,0,2,0,1,1,Most Probable,Hselect3.jpg,Nselect3.jpg
,,,,,,,,,,,,,,,,111,2019-06-06_22h24.50.811,Probabilistic Learning,3.1.0,60,,,,,,,,1,0,3,2,1,2,hiragana3.xlsx,hiragana31.xlsx,hiragana32.xlsx,,,,,,,,,,,,,,,,,,,,,,,,,,,,,,,,,5,5.192,1,0,2,1,1,1,Least Probable,Hselect3.jpg,Nselect3.jpg
