welc_resp.keys,welc_resp.rt,intr0_resp.keys,intr0_resp.rt,prep_resp.keys,prep_resp.corr,prep_resp.rt,preparation.thisRepN,preparation.thisTrialN,preparation.thisN,preparation.thisIndex,preparation.ran,preparation.order,letter10,letter20,corrAns0,Participant ID*,date,expName,psychopyVersion,frameRate,outro_resp.keys,outro_resp.rt,instr1_resp.keys,instr1_resp.rt,resp.keys,resp.corr,resp.rt,letterMaster.thisRepN,letterMaster.thisTrialN,letterMaster.thisN,letterMaster.thisIndex,letterMaster.ran,letterMaster.order,letterset,letterset2,letterset3,practice.thisRepN,practice.thisTrialN,practice.thisN,practice.thisIndex,practice.ran,practice.order,letter1,letter2,corrAns,letterA,letterC,letterE,instr2_resp.keys,instr2_resp.rt,instr3_resp.keys,instr3_resp.rt,test_resp.keys,test_resp.rt,test.thisRepN,test.thisTrialN,test.thisN,test.thisIndex,test.ran,test.order,letter3,letter4,letterA2,letterB2,pickA,avoidB,check_resp.keys,check_resp.rt,learnt_resp.keys,learnt_resp.rt,checks.thisRepN,checks.thisTrialN,checks.thisN,checks.thisIndex,checks.ran,checks.order,question,learnt_letters,numbers,outro_resp2.keys,outro_resp2.rt
m,4.83,c,8.383,c,0,0.926,1,0,10,9,1,9,p1.jpg,p2.jpg,m,0104,2019-06-11_16h22.58.478,Probabilistic Learning,3.1.0,60,,,,,,,,,,,,,,,,,,,,,,,,,,,,,,,,,,,,,,,,,,,,,,,,,,,,,,,,,,,,,
,,,,m,0,0.546,1,0,10,0,1,9,p1.jpg,p2.jpg,c,0104,2019-06-11_16h22.58.478,Probabilistic Learning,3.1.0,60,,,,,,,,,,,,,,,,,,,,,,,,,,,,,,,,,,,,,,,,,,,,,,,,,,,,,,,,,,,,,
,,,,,0,,1,0,10,2,1,9,p2.jpg,p1.jpg,m,0104,2019-06-11_16h22.58.478,Probabilistic Learning,3.1.0,60,,,,,,,,,,,,,,,,,,,,,,,,,,,,,,,,,,,,,,,,,,,,,,,,,,,,,,,,,,,,,
,,,,m,1,1.112,1,0,10,7,1,9,p2.jpg,p1.jpg,m,0104,2019-06-11_16h22.58.478,Probabilistic Learning,3.1.0,60,,,,,,,,,,,,,,,,,,,,,,,,,,,,,,,,,,,,,,,,,,,,,,,,,,,,,,,,,,,,,
,,,,m,1,0.579,1,0,10,3,1,9,p2.jpg,p1.jpg,m,0104,2019-06-11_16h22.58.478,Probabilistic Learning,3.1.0,60,,,,,,,,,,,,,,,,,,,,,,,,,,,,,,,,,,,,,,,,,,,,,,,,,,,,,,,,,,,,,
,,,,c,1,0.529,1,0,10,5,1,9,p1.jpg,p2.jpg,c,0104,2019-06-11_16h22.58.478,Probabilistic Learning,3.1.0,60,,,,,,,,,,,,,,,,,,,,,,,,,,,,,,,,,,,,,,,,,,,,,,,,,,,,,,,,,,,,,
,,,,c,1,0.462,1,0,10,1,1,9,p1.jpg,p2.jpg,c,0104,2019-06-11_16h22.58.478,Probabilistic Learning,3.1.0,60,,,,,,,,,,,,,,,,,,,,,,,,,,,,,,,,,,,,,,,,,,,,,,,,,,,,,,,,,,,,,
,,,,c,1,0.429,1,0,10,6,1,9,p1.jpg,p2.jpg,c,0104,2019-06-11_16h22.58.478,Probabilistic Learning,3.1.0,60,,,,,,,,,,,,,,,,,,,,,,,,,,,,,,,,,,,,,,,,,,,,,,,,,,,,,,,,,,,,,
,,,,m,0,0.414,1,0,10,8,1,9,p2.jpg,p1.jpg,c,0104,2019-06-11_16h22.58.478,Probabilistic Learning,3.1.0,60,,,,,,,,,,,,,,,,,,,,,,,,,,,,,,,,,,,,,,,,,,,,,,,,,,,,,,,,,,,,,
,,,,c,1,0.361,1,0,10,4,1,9,p1.jpg,p2.jpg,c,0104,2019-06-11_16h22.58.478,Probabilistic Learning,3.1.0,60,,,,,,,,,,,,,,,,,,,,,,,,,,,,,,,,,,,,,,,,,,,,,,,,,,,,,,,,,,,,,
,,,,,,,,,,,,,,,,0104,2019-06-11_16h22.58.478,Probabilistic Learning,3.1.0,60,c,5.938,c,11.588,m,0,0.579,1,0,3,2,1,2,hiragana3.xlsx,hiragana31.xlsx,hiragana32.xlsx,6,0,180,13,1,179,l23.jpg,l24.jpg,c,,c,,,,,,,,,,,,,,,,,,,,,,,,,,,,,,,,,,
,,,,,,,,,,,,,,,,0104,2019-06-11_16h22.58.478,Probabilistic Learning,3.1.0,60,,,,,c,0,0.528,1,0,3,2,1,2,hiragana3.xlsx,hiragana31.xlsx,hiragana32.xlsx,6,0,180,8,1,179,l21.jpg,l22.jpg,m,c,,,,,,,,,,,,,,,,,,,,,,,,,,,,,,,,,,,
,,,,,,,,,,,,,,,,0104,2019-06-11_16h22.58.478,Probabilistic Learning,3.1.0,60,,,,,c,0,0.763,1,0,3,2,1,2,hiragana3.xlsx,hiragana31.xlsx,hiragana32.xlsx,6,0,180,23,1,179,l26.jpg,l25.jpg,m,,,m,,,,,,,,,,,,,,,,,,,,,,,,,,,,,,,,,
,,,,,,,,,,,,,,,,0104,2019-06-11_16h22.58.478,Probabilistic Learning,3.1.0,60,,,,,m,0,0.579,1,0,3,2,1,2,hiragana3.xlsx,hiragana31.xlsx,hiragana32.xlsx,6,0,180,10,1,179,l23.jpg,l24.jpg,c,,c,,,,,,,,,,,,,,,,,,,,,,,,,,,,,,,,,,
,,,,,,,,,,,,,,,,0104,2019-06-11_16h22.58.478,Probabilistic Learning,3.1.0,60,,,,,m,0,0.697,1,0,3,2,1,2,hiragana3.xlsx,hiragana31.xlsx,hiragana32.xlsx,6,0,180,9,1,179,l22.jpg,l21.jpg,c,m,,,,,,,,,,,,,,,,,,,,,,,,,,,,,,,,,,,
,,,,,,,,,,,,,,,,0104,2019-06-11_16h22.58.478,Probabilistic Learning,3.1.0,60,,,,,m,1,0.913,1,0,3,2,1,2,hiragana3.xlsx,hiragana31.xlsx,hiragana32.xlsx,6,0,180,5,1,179,l22.jpg,l21.jpg,m,m,,,,,,,,,,,,,,,,,,,,,,,,,,,,,,,,,,,
,,,,,,,,,,,,,,,,0104,2019-06-11_16h22.58.478,Probabilistic Learning,3.1.0,60,,,,,m,1,0.73,1,0,3,2,1,2,hiragana3.xlsx,hiragana31.xlsx,hiragana32.xlsx,6,0,180,27,1,179,l25.jpg,l26.jpg,m,,,c,,,,,,,,,,,,,,,,,,,,,,,,,,,,,,,,,
,,,,,,,,,,,,,,,,0104,2019-06-11_16h22.58.478,Probabilistic Learning,3.1.0,60,,,,,c,0,0.481,1,0,3,2,1,2,hiragana3.xlsx,hiragana31.xlsx,hiragana32.xlsx,6,0,180,14,1,179,l24.jpg,l23.jpg,m,,m,,,,,,,,,,,,,,,,,,,,,,,,,,,,,,,,,,
,,,,,,,,,,,,,,,,0104,2019-06-11_16h22.58.478,Probabilistic Learning,3.1.0,60,,,,,m,0,0.563,1,0,3,2,1,2,hiragana3.xlsx,hiragana31.xlsx,hiragana32.xlsx,6,0,180,22,1,179,l25.jpg,l26.jpg,c,,,c,,,,,,,,,,,,,,,,,,,,,,,,,,,,,,,,,
,,,,,,,,,,,,,,,,0104,2019-06-11_16h22.58.478,Probabilistic Learning,3.1.0,60,,,,,c,1,0.546,1,0,3,2,1,2,hiragana3.xlsx,hiragana31.xlsx,hiragana32.xlsx,6,0,180,21,1,179,l25.jpg,l26.jpg,c,,,c,,,,,,,,,,,,,,,,,,,,,,,,,,,,,,,,,
,,,,,,,,,,,,,,,,0104,2019-06-11_16h22.58.478,Probabilistic Learning,3.1.0,60,,,,,m,1,0.995,1,0,3,2,1,2,hiragana3.xlsx,hiragana31.xlsx,hiragana32.xlsx,6,0,180,7,1,179,l22.jpg,l21.jpg,m,m,,,,,,,,,,,,,,,,,,,,,,,,,,,,,,,,,,,
,,,,,,,,,,,,,,,,0104,2019-06-11_16h22.58.478,Probabilistic Learning,3.1.0,60,,,,,c,0,0.829,1,0,3,2,1,2,hiragana3.xlsx,hiragana31.xlsx,hiragana32.xlsx,6,0,180,15,1,179,l24.jpg,l23.jpg,m,,m,,,,,,,,,,,,,,,,,,,,,,,,,,,,,,,,,,
,,,,,,,,,,,,,,,,0104,2019-06-11_16h22.58.478,Probabilistic Learning,3.1.0,60,,,,,c,1,1.095,1,0,3,2,1,2,hiragana3.xlsx,hiragana31.xlsx,hiragana32.xlsx,6,0,180,17,1,179,l24.jpg,l23.jpg,c,,m,,,,,,,,,,,,,,,,,,,,,,,,,,,,,,,,,,
,,,,,,,,,,,,,,,,0104,2019-06-11_16h22.58.478,Probabilistic Learning,3.1.0,60,,,,,c,1,1.012,1,0,3,2,1,2,hiragana3.xlsx,hiragana31.xlsx,hiragana32.xlsx,6,0,180,20,1,179,l25.jpg,l26.jpg,c,,,c,,,,,,,,,,,,,,,,,,,,,,,,,,,,,,,,,
,,,,,,,,,,,,,,,,0104,2019-06-11_16h22.58.478,Probabilistic Learning,3.1.0,60,,,,,m,1,1.012,1,0,3,2,1,2,hiragana3.xlsx,hiragana31.xlsx,hiragana32.xlsx,6,0,180,19,1,179,l23.jpg,l24.jpg,m,,c,,,,,,,,,,,,,,,,,,,,,,,,,,,,,,,,,,
,,,,,,,,,,,,,,,,0104,2019-06-11_16h22.58.478,Probabilistic Learning,3.1.0,60,,,,,c,1,0.812,1,0,3,2,1,2,hiragana3.xlsx,hiragana31.xlsx,hiragana32.xlsx,6,0,180,3,1,179,l21.jpg,l22.jpg,c,c,,,,,,,,,,,,,,,,,,,,,,,,,,,,,,,,,,,
,,,,,,,,,,,,,,,,0104,2019-06-11_16h22.58.478,Probabilistic Learning,3.1.0,60,,,,,m,0,1.294,1,0,3,2,1,2,hiragana3.xlsx,hiragana31.xlsx,hiragana32.xlsx,6,0,180,12,1,179,l23.jpg,l24.jpg,c,,c,,,,,,,,,,,,,,,,,,,,,,,,,,,,,,,,,,
,,,,,,,,,,,,,,,,0104,2019-06-11_16h22.58.478,Probabilistic Learning,3.1.0,60,,,,,m,0,1.229,1,0,3,2,1,2,hiragana3.xlsx,hiragana31.xlsx,hiragana32.xlsx,6,0,180,0,1,179,l21.jpg,l22.jpg,c,c,,,,,,,,,,,,,,,,,,,,,,,,,,,,,,,,,,,
,,,,,,,,,,,,,,,,0104,2019-06-11_16h22.58.478,Probabilistic Learning,3.1.0,60,,,,,c,1,0.512,1,0,3,2,1,2,hiragana3.xlsx,hiragana31.xlsx,hiragana32.xlsx,6,0,180,2,1,179,l21.jpg,l22.jpg,c,c,,,,,,,,,,,,,,,,,,,,,,,,,,,,,,,,,,,
,,,,,,,,,,,,,,,,0104,2019-06-11_16h22.58.478,Probabilistic Learning,3.1.0,60,,,,,,0,,1,0,3,2,1,2,hiragana3.xlsx,hiragana31.xlsx,hiragana32.xlsx,6,0,180,25,1,179,l26.jpg,l25.jpg,m,,,m,,,,,,,,,,,,,,,,,,,,,,,,,,,,,,,,,
,,,,,,,,,,,,,,,,0104,2019-06-11_16h22.58.478,Probabilistic Learning,3.1.0,60,,,,,m,0,0.813,1,0,3,2,1,2,hiragana3.xlsx,hiragana31.xlsx,hiragana32.xlsx,6,0,180,1,1,179,l21.jpg,l22.jpg,c,c,,,,,,,,,,,,,,,,,,,,,,,,,,,,,,,,,,,
,,,,,,,,,,,,,,,,0104,2019-06-11_16h22.58.478,Probabilistic Learning,3.1.0,60,,,,,m,0,0.946,1,0,3,2,1,2,hiragana3.xlsx,hiragana31.xlsx,hiragana32.xlsx,6,0,180,18,1,179,l24.jpg,l23.jpg,c,,m,,,,,,,,,,,,,,,,,,,,,,,,,,,,,,,,,,
,,,,,,,,,,,,,,,,0104,2019-06-11_16h22.58.478,Probabilistic Learning,3.1.0,60,,,,,m,0,0.795,1,0,3,2,1,2,hiragana3.xlsx,hiragana31.xlsx,hiragana32.xlsx,6,0,180,11,1,179,l23.jpg,l24.jpg,c,,c,,,,,,,,,,,,,,,,,,,,,,,,,,,,,,,,,,
,,,,,,,,,,,,,,,,0104,2019-06-11_16h22.58.478,Probabilistic Learning,3.1.0,60,,,,,c,0,0.528,1,0,3,2,1,2,hiragana3.xlsx,hiragana31.xlsx,hiragana32.xlsx,6,0,180,6,1,179,l22.jpg,l21.jpg,m,m,,,,,,,,,,,,,,,,,,,,,,,,,,,,,,,,,,,
,,,,,,,,,,,,,,,,0104,2019-06-11_16h22.58.478,Probabilistic Learning,3.1.0,60,,,,,c,0,0.795,1,0,3,2,1,2,hiragana3.xlsx,hiragana31.xlsx,hiragana32.xlsx,6,0,180,16,1,179,l24.jpg,l23.jpg,m,,m,,,,,,,,,,,,,,,,,,,,,,,,,,,,,,,,,,
,,,,,,,,,,,,,,,,0104,2019-06-11_16h22.58.478,Probabilistic Learning,3.1.0,60,,,,,c,1,0.714,1,0,3,2,1,2,hiragana3.xlsx,hiragana31.xlsx,hiragana32.xlsx,6,0,180,28,1,179,l26.jpg,l25.jpg,c,,,m,,,,,,,,,,,,,,,,,,,,,,,,,,,,,,,,,
,,,,,,,,,,,,,,,,0104,2019-06-11_16h22.58.478,Probabilistic Learning,3.1.0,60,,,,,c,0,0.746,1,0,3,2,1,2,hiragana3.xlsx,hiragana31.xlsx,hiragana32.xlsx,6,0,180,24,1,179,l26.jpg,l25.jpg,m,,,m,,,,,,,,,,,,,,,,,,,,,,,,,,,,,,,,,
,,,,,,,,,,,,,,,,0104,2019-06-11_16h22.58.478,Probabilistic Learning,3.1.0,60,,,,,c,1,0.631,1,0,3,2,1,2,hiragana3.xlsx,hiragana31.xlsx,hiragana32.xlsx,6,0,180,29,1,179,l26.jpg,l25.jpg,c,,,m,,,,,,,,,,,,,,,,,,,,,,,,,,,,,,,,,
,,,,,,,,,,,,,,,,0104,2019-06-11_16h22.58.478,Probabilistic Learning,3.1.0,60,,,,,m,1,0.864,1,0,3,2,1,2,hiragana3.xlsx,hiragana31.xlsx,hiragana32.xlsx,6,0,180,4,1,179,l22.jpg,l21.jpg,m,m,,,,,,,,,,,,,,,,,,,,,,,,,,,,,,,,,,,
,,,,,,,,,,,,,,,,0104,2019-06-11_16h22.58.478,Probabilistic Learning,3.1.0,60,,,,,m,1,0.846,1,0,3,2,1,2,hiragana3.xlsx,hiragana31.xlsx,hiragana32.xlsx,6,0,180,26,1,179,l25.jpg,l26.jpg,m,,,c,,,,,,,,,,,,,,,,,,,,,,,,,,,,,,,,,
,,,,,,,,,,,,,,,,0104,2019-06-11_16h22.58.478,Probabilistic Learning,3.1.0,60,,,,,c,0,0.779,1,0,3,2,1,2,hiragana3.xlsx,hiragana31.xlsx,hiragana32.xlsx,6,0,180,19,1,179,l23.jpg,l24.jpg,m,,c,,,,,,,,,,,,,,,,,,,,,,,,,,,,,,,,,,
,,,,,,,,,,,,,,,,0104,2019-06-11_16h22.58.478,Probabilistic Learning,3.1.0,60,,,,,m,1,0.697,1,0,3,2,1,2,hiragana3.xlsx,hiragana31.xlsx,hiragana32.xlsx,6,0,180,26,1,179,l25.jpg,l26.jpg,m,,,c,,,,,,,,,,,,,,,,,,,,,,,,,,,,,,,,,
,,,,,,,,,,,,,,,,0104,2019-06-11_16h22.58.478,Probabilistic Learning,3.1.0,60,,,,,m,0,0.963,1,0,3,2,1,2,hiragana3.xlsx,hiragana31.xlsx,hiragana32.xlsx,6,0,180,0,1,179,l21.jpg,l22.jpg,c,c,,,,,,,,,,,,,,,,,,,,,,,,,,,,,,,,,,,
,,,,,,,,,,,,,,,,0104,2019-06-11_16h22.58.478,Probabilistic Learning,3.1.0,60,,,,,c,1,0.496,1,0,3,2,1,2,hiragana3.xlsx,hiragana31.xlsx,hiragana32.xlsx,6,0,180,1,1,179,l21.jpg,l22.jpg,c,c,,,,,,,,,,,,,,,,,,,,,,,,,,,,,,,,,,,
,,,,,,,,,,,,,,,,0104,2019-06-11_16h22.58.478,Probabilistic Learning,3.1.0,60,,,,,c,1,0.913,1,0,3,2,1,2,hiragana3.xlsx,hiragana31.xlsx,hiragana32.xlsx,6,0,180,29,1,179,l26.jpg,l25.jpg,c,,,m,,,,,,,,,,,,,,,,,,,,,,,,,,,,,,,,,
,,,,,,,,,,,,,,,,0104,2019-06-11_16h22.58.478,Probabilistic Learning,3.1.0,60,,,,,c,1,0.547,1,0,3,2,1,2,hiragana3.xlsx,hiragana31.xlsx,hiragana32.xlsx,6,0,180,28,1,179,l26.jpg,l25.jpg,c,,,m,,,,,,,,,,,,,,,,,,,,,,,,,,,,,,,,,
,,,,,,,,,,,,,,,,0104,2019-06-11_16h22.58.478,Probabilistic Learning,3.1.0,60,,,,,m,0,0.93,1,0,3,2,1,2,hiragana3.xlsx,hiragana31.xlsx,hiragana32.xlsx,6,0,180,13,1,179,l23.jpg,l24.jpg,c,,c,,,,,,,,,,,,,,,,,,,,,,,,,,,,,,,,,,
,,,,,,,,,,,,,,,,0104,2019-06-11_16h22.58.478,Probabilistic Learning,3.1.0,60,,,,,c,1,0.446,1,0,3,2,1,2,hiragana3.xlsx,hiragana31.xlsx,hiragana32.xlsx,6,0,180,2,1,179,l21.jpg,l22.jpg,c,c,,,,,,,,,,,,,,,,,,,,,,,,,,,,,,,,,,,
,,,,,,,,,,,,,,,,0104,2019-06-11_16h22.58.478,Probabilistic Learning,3.1.0,60,,,,,c,0,0.795,1,0,3,2,1,2,hiragana3.xlsx,hiragana31.xlsx,hiragana32.xlsx,6,0,180,25,1,179,l26.jpg,l25.jpg,m,,,m,,,,,,,,,,,,,,,,,,,,,,,,,,,,,,,,,
,,,,,,,,,,,,,,,,0104,2019-06-11_16h22.58.478,Probabilistic Learning,3.1.0,60,,,,,c,1,1.195,1,0,3,2,1,2,hiragana3.xlsx,hiragana31.xlsx,hiragana32.xlsx,6,0,180,17,1,179,l24.jpg,l23.jpg,c,,m,,,,,,,,,,,,,,,,,,,,,,,,,,,,,,,,,,
,,,,,,,,,,,,,,,,0104,2019-06-11_16h22.58.478,Probabilistic Learning,3.1.0,60,,,,,m,0,0.746,1,0,3,2,1,2,hiragana3.xlsx,hiragana31.xlsx,hiragana32.xlsx,6,0,180,3,1,179,l21.jpg,l22.jpg,c,c,,,,,,,,,,,,,,,,,,,,,,,,,,,,,,,,,,,
,,,,,,,,,,,,,,,,0104,2019-06-11_16h22.58.478,Probabilistic Learning,3.1.0,60,,,,,m,1,0.845,1,0,3,2,1,2,hiragana3.xlsx,hiragana31.xlsx,hiragana32.xlsx,6,0,180,15,1,179,l24.jpg,l23.jpg,m,,m,,,,,,,,,,,,,,,,,,,,,,,,,,,,,,,,,,
,,,,,,,,,,,,,,,,0104,2019-06-11_16h22.58.478,Probabilistic Learning,3.1.0,60,,,,,m,0,0.728,1,0,3,2,1,2,hiragana3.xlsx,hiragana31.xlsx,hiragana32.xlsx,6,0,180,9,1,179,l22.jpg,l21.jpg,c,m,,,,,,,,,,,,,,,,,,,,,,,,,,,,,,,,,,,
,,,,,,,,,,,,,,,,0104,2019-06-11_16h22.58.478,Probabilistic Learning,3.1.0,60,,,,,c,0,0.578,1,0,3,2,1,2,hiragana3.xlsx,hiragana31.xlsx,hiragana32.xlsx,6,0,180,6,1,179,l22.jpg,l21.jpg,m,m,,,,,,,,,,,,,,,,,,,,,,,,,,,,,,,,,,,
,,,,,,,,,,,,,,,,0104,2019-06-11_16h22.58.478,Probabilistic Learning,3.1.0,60,,,,,c,1,0.63,1,0,3,2,1,2,hiragana3.xlsx,hiragana31.xlsx,hiragana32.xlsx,6,0,180,18,1,179,l24.jpg,l23.jpg,c,,m,,,,,,,,,,,,,,,,,,,,,,,,,,,,,,,,,,
,,,,,,,,,,,,,,,,0104,2019-06-11_16h22.58.478,Probabilistic Learning,3.1.0,60,,,,,c,0,0.444,1,0,3,2,1,2,hiragana3.xlsx,hiragana31.xlsx,hiragana32.xlsx,6,0,180,14,1,179,l24.jpg,l23.jpg,m,,m,,,,,,,,,,,,,,,,,,,,,,,,,,,,,,,,,,
,,,,,,,,,,,,,,,,0104,2019-06-11_16h22.58.478,Probabilistic Learning,3.1.0,60,,,,,c,0,0.564,1,0,3,2,1,2,hiragana3.xlsx,hiragana31.xlsx,hiragana32.xlsx,6,0,180,16,1,179,l24.jpg,l23.jpg,m,,m,,,,,,,,,,,,,,,,,,,,,,,,,,,,,,,,,,
,,,,,,,,,,,,,,,,0104,2019-06-11_16h22.58.478,Probabilistic Learning,3.1.0,60,,,,,m,1,0.93,1,0,3,2,1,2,hiragana3.xlsx,hiragana31.xlsx,hiragana32.xlsx,6,0,180,7,1,179,l22.jpg,l21.jpg,m,m,,,,,,,,,,,,,,,,,,,,,,,,,,,,,,,,,,,
,,,,,,,,,,,,,,,,0104,2019-06-11_16h22.58.478,Probabilistic Learning,3.1.0,60,,,,,c,1,0.746,1,0,3,2,1,2,hiragana3.xlsx,hiragana31.xlsx,hiragana32.xlsx,6,0,180,11,1,179,l23.jpg,l24.jpg,c,,c,,,,,,,,,,,,,,,,,,,,,,,,,,,,,,,,,,
,,,,,,,,,,,,,,,,0104,2019-06-11_16h22.58.478,Probabilistic Learning,3.1.0,60,,,,,m,0,0.714,1,0,3,2,1,2,hiragana3.xlsx,hiragana31.xlsx,hiragana32.xlsx,6,0,180,20,1,179,l25.jpg,l26.jpg,c,,,c,,,,,,,,,,,,,,,,,,,,,,,,,,,,,,,,,
,,,,,,,,,,,,,,,,0104,2019-06-11_16h22.58.478,Probabilistic Learning,3.1.0,60,,,,,m,0,0.412,1,0,3,2,1,2,hiragana3.xlsx,hiragana31.xlsx,hiragana32.xlsx,6,0,180,21,1,179,l25.jpg,l26.jpg,c,,,c,,,,,,,,,,,,,,,,,,,,,,,,,,,,,,,,,
,,,,,,,,,,,,,,,,0104,2019-06-11_16h22.58.478,Probabilistic Learning,3.1.0,60,,,,,c,0,0.362,1,0,3,2,1,2,hiragana3.xlsx,hiragana31.xlsx,hiragana32.xlsx,6,0,180,24,1,179,l26.jpg,l25.jpg,m,,,m,,,,,,,,,,,,,,,,,,,,,,,,,,,,,,,,,
,,,,,,,,,,,,,,,,0104,2019-06-11_16h22.58.478,Probabilistic Learning,3.1.0,60,,,,,m,1,0.663,1,0,3,2,1,2,hiragana3.xlsx,hiragana31.xlsx,hiragana32.xlsx,6,0,180,23,1,179,l26.jpg,l25.jpg,m,,,m,,,,,,,,,,,,,,,,,,,,,,,,,,,,,,,,,
,,,,,,,,,,,,,,,,0104,2019-06-11_16h22.58.478,Probabilistic Learning,3.1.0,60,,,,,c,1,0.662,1,0,3,2,1,2,hiragana3.xlsx,hiragana31.xlsx,hiragana32.xlsx,6,0,180,22,1,179,l25.jpg,l26.jpg,c,,,c,,,,,,,,,,,,,,,,,,,,,,,,,,,,,,,,,
,,,,,,,,,,,,,,,,0104,2019-06-11_16h22.58.478,Probabilistic Learning,3.1.0,60,,,,,c,0,0.946,1,0,3,2,1,2,hiragana3.xlsx,hiragana31.xlsx,hiragana32.xlsx,6,0,180,8,1,179,l21.jpg,l22.jpg,m,c,,,,,,,,,,,,,,,,,,,,,,,,,,,,,,,,,,,
,,,,,,,,,,,,,,,,0104,2019-06-11_16h22.58.478,Probabilistic Learning,3.1.0,60,,,,,c,1,0.962,1,0,3,2,1,2,hiragana3.xlsx,hiragana31.xlsx,hiragana32.xlsx,6,0,180,10,1,179,l23.jpg,l24.jpg,c,,c,,,,,,,,,,,,,,,,,,,,,,,,,,,,,,,,,,
,,,,,,,,,,,,,,,,0104,2019-06-11_16h22.58.478,Probabilistic Learning,3.1.0,60,,,,,m,1,0.695,1,0,3,2,1,2,hiragana3.xlsx,hiragana31.xlsx,hiragana32.xlsx,6,0,180,27,1,179,l25.jpg,l26.jpg,m,,,c,,,,,,,,,,,,,,,,,,,,,,,,,,,,,,,,,
,,,,,,,,,,,,,,,,0104,2019-06-11_16h22.58.478,Probabilistic Learning,3.1.0,60,,,,,c,0,0.729,1,0,3,2,1,2,hiragana3.xlsx,hiragana31.xlsx,hiragana32.xlsx,6,0,180,4,1,179,l22.jpg,l21.jpg,m,m,,,,,,,,,,,,,,,,,,,,,,,,,,,,,,,,,,,
,,,,,,,,,,,,,,,,0104,2019-06-11_16h22.58.478,Probabilistic Learning,3.1.0,60,,,,,m,1,0.796,1,0,3,2,1,2,hiragana3.xlsx,hiragana31.xlsx,hiragana32.xlsx,6,0,180,5,1,179,l22.jpg,l21.jpg,m,m,,,,,,,,,,,,,,,,,,,,,,,,,,,,,,,,,,,
,,,,,,,,,,,,,,,,0104,2019-06-11_16h22.58.478,Probabilistic Learning,3.1.0,60,,,,,c,1,1.096,1,0,3,2,1,2,hiragana3.xlsx,hiragana31.xlsx,hiragana32.xlsx,6,0,180,12,1,179,l23.jpg,l24.jpg,c,,c,,,,,,,,,,,,,,,,,,,,,,,,,,,,,,,,,,
,,,,,,,,,,,,,,,,0104,2019-06-11_16h22.58.478,Probabilistic Learning,3.1.0,60,,,,,m,0,0.697,1,0,3,2,1,2,hiragana3.xlsx,hiragana31.xlsx,hiragana32.xlsx,6,0,180,21,1,179,l25.jpg,l26.jpg,c,,,c,,,,,,,,,,,,,,,,,,,,,,,,,,,,,,,,,
,,,,,,,,,,,,,,,,0104,2019-06-11_16h22.58.478,Probabilistic Learning,3.1.0,60,,,,,c,0,0.595,1,0,3,2,1,2,hiragana3.xlsx,hiragana31.xlsx,hiragana32.xlsx,6,0,180,15,1,179,l24.jpg,l23.jpg,m,,m,,,,,,,,,,,,,,,,,,,,,,,,,,,,,,,,,,
,,,,,,,,,,,,,,,,0104,2019-06-11_16h22.58.478,Probabilistic Learning,3.1.0,60,,,,,m,0,0.729,1,0,3,2,1,2,hiragana3.xlsx,hiragana31.xlsx,hiragana32.xlsx,6,0,180,2,1,179,l21.jpg,l22.jpg,c,c,,,,,,,,,,,,,,,,,,,,,,,,,,,,,,,,,,,
,,,,,,,,,,,,,,,,0104,2019-06-11_16h22.58.478,Probabilistic Learning,3.1.0,60,,,,,c,0,0.595,1,0,3,2,1,2,hiragana3.xlsx,hiragana31.xlsx,hiragana32.xlsx,6,0,180,4,1,179,l22.jpg,l21.jpg,m,m,,,,,,,,,,,,,,,,,,,,,,,,,,,,,,,,,,,
,,,,,,,,,,,,,,,,0104,2019-06-11_16h22.58.478,Probabilistic Learning,3.1.0,60,,,,,c,0,0.695,1,0,3,2,1,2,hiragana3.xlsx,hiragana31.xlsx,hiragana32.xlsx,6,0,180,14,1,179,l24.jpg,l23.jpg,m,,m,,,,,,,,,,,,,,,,,,,,,,,,,,,,,,,,,,
,,,,,,,,,,,,,,,,0104,2019-06-11_16h22.58.478,Probabilistic Learning,3.1.0,60,,,,,c,1,0.579,1,0,3,2,1,2,hiragana3.xlsx,hiragana31.xlsx,hiragana32.xlsx,6,0,180,29,1,179,l26.jpg,l25.jpg,c,,,m,,,,,,,,,,,,,,,,,,,,,,,,,,,,,,,,,
,,,,,,,,,,,,,,,,0104,2019-06-11_16h22.58.478,Probabilistic Learning,3.1.0,60,,,,,c,0,0.412,1,0,3,2,1,2,hiragana3.xlsx,hiragana31.xlsx,hiragana32.xlsx,6,0,180,25,1,179,l26.jpg,l25.jpg,m,,,m,,,,,,,,,,,,,,,,,,,,,,,,,,,,,,,,,
,,,,,,,,,,,,,,,,0104,2019-06-11_16h22.58.478,Probabilistic Learning,3.1.0,60,,,,,c,1,1.261,1,0,3,2,1,2,hiragana3.xlsx,hiragana31.xlsx,hiragana32.xlsx,6,0,180,12,1,179,l23.jpg,l24.jpg,c,,c,,,,,,,,,,,,,,,,,,,,,,,,,,,,,,,,,,
,,,,,,,,,,,,,,,,0104,2019-06-11_16h22.58.478,Probabilistic Learning,3.1.0,60,,,,,m,0,0.578,1,0,3,2,1,2,hiragana3.xlsx,hiragana31.xlsx,hiragana32.xlsx,6,0,180,17,1,179,l24.jpg,l23.jpg,c,,m,,,,,,,,,,,,,,,,,,,,,,,,,,,,,,,,,,
,,,,,,,,,,,,,,,,0104,2019-06-11_16h22.58.478,Probabilistic Learning,3.1.0,60,,,,,c,1,0.596,1,0,3,2,1,2,hiragana3.xlsx,hiragana31.xlsx,hiragana32.xlsx,6,0,180,11,1,179,l23.jpg,l24.jpg,c,,c,,,,,,,,,,,,,,,,,,,,,,,,,,,,,,,,,,
,,,,,,,,,,,,,,,,0104,2019-06-11_16h22.58.478,Probabilistic Learning,3.1.0,60,,,,,m,1,1.012,1,0,3,2,1,2,hiragana3.xlsx,hiragana31.xlsx,hiragana32.xlsx,6,0,180,27,1,179,l25.jpg,l26.jpg,m,,,c,,,,,,,,,,,,,,,,,,,,,,,,,,,,,,,,,
,,,,,,,,,,,,,,,,0104,2019-06-11_16h22.58.478,Probabilistic Learning,3.1.0,60,,,,,c,0,0.78,1,0,3,2,1,2,hiragana3.xlsx,hiragana31.xlsx,hiragana32.xlsx,6,0,180,19,1,179,l23.jpg,l24.jpg,m,,c,,,,,,,,,,,,,,,,,,,,,,,,,,,,,,,,,,
,,,,,,,,,,,,,,,,0104,2019-06-11_16h22.58.478,Probabilistic Learning,3.1.0,60,,,,,c,0,0.596,1,0,3,2,1,2,hiragana3.xlsx,hiragana31.xlsx,hiragana32.xlsx,6,0,180,23,1,179,l26.jpg,l25.jpg,m,,,m,,,,,,,,,,,,,,,,,,,,,,,,,,,,,,,,,
,,,,,,,,,,,,,,,,0104,2019-06-11_16h22.58.478,Probabilistic Learning,3.1.0,60,,,,,m,1,0.946,1,0,3,2,1,2,hiragana3.xlsx,hiragana31.xlsx,hiragana32.xlsx,6,0,180,7,1,179,l22.jpg,l21.jpg,m,m,,,,,,,,,,,,,,,,,,,,,,,,,,,,,,,,,,,
,,,,,,,,,,,,,,,,0104,2019-06-11_16h22.58.478,Probabilistic Learning,3.1.0,60,,,,,c,1,0.762,1,0,3,2,1,2,hiragana3.xlsx,hiragana31.xlsx,hiragana32.xlsx,6,0,180,28,1,179,l26.jpg,l25.jpg,c,,,m,,,,,,,,,,,,,,,,,,,,,,,,,,,,,,,,,
,,,,,,,,,,,,,,,,0104,2019-06-11_16h22.58.478,Probabilistic Learning,3.1.0,60,,,,,m,1,0.795,1,0,3,2,1,2,hiragana3.xlsx,hiragana31.xlsx,hiragana32.xlsx,6,0,180,5,1,179,l22.jpg,l21.jpg,m,m,,,,,,,,,,,,,,,,,,,,,,,,,,,,,,,,,,,
,,,,,,,,,,,,,,,,0104,2019-06-11_16h22.58.478,Probabilistic Learning,3.1.0,60,,,,,c,1,0.629,1,0,3,2,1,2,hiragana3.xlsx,hiragana31.xlsx,hiragana32.xlsx,6,0,180,0,1,179,l21.jpg,l22.jpg,c,c,,,,,,,,,,,,,,,,,,,,,,,,,,,,,,,,,,,
,,,,,,,,,,,,,,,,0104,2019-06-11_16h22.58.478,Probabilistic Learning,3.1.0,60,,,,,m,0,0.562,1,0,3,2,1,2,hiragana3.xlsx,hiragana31.xlsx,hiragana32.xlsx,6,0,180,22,1,179,l25.jpg,l26.jpg,c,,,c,,,,,,,,,,,,,,,,,,,,,,,,,,,,,,,,,
,,,,,,,,,,,,,,,,0104,2019-06-11_16h22.58.478,Probabilistic Learning,3.1.0,60,,,,,c,0,0.663,1,0,3,2,1,2,hiragana3.xlsx,hiragana31.xlsx,hiragana32.xlsx,6,0,180,26,1,179,l25.jpg,l26.jpg,m,,,c,,,,,,,,,,,,,,,,,,,,,,,,,,,,,,,,,
,,,,,,,,,,,,,,,,0104,2019-06-11_16h22.58.478,Probabilistic Learning,3.1.0,60,,,,,c,1,0.845,1,0,3,2,1,2,hiragana3.xlsx,hiragana31.xlsx,hiragana32.xlsx,6,0,180,10,1,179,l23.jpg,l24.jpg,c,,c,,,,,,,,,,,,,,,,,,,,,,,,,,,,,,,,,,
,,,,,,,,,,,,,,,,0104,2019-06-11_16h22.58.478,Probabilistic Learning,3.1.0,60,,,,,m,0,0.731,1,0,3,2,1,2,hiragana3.xlsx,hiragana31.xlsx,hiragana32.xlsx,6,0,180,20,1,179,l25.jpg,l26.jpg,c,,,c,,,,,,,,,,,,,,,,,,,,,,,,,,,,,,,,,
,,,,,,,,,,,,,,,,0104,2019-06-11_16h22.58.478,Probabilistic Learning,3.1.0,60,,,,,c,0,0.612,1,0,3,2,1,2,hiragana3.xlsx,hiragana31.xlsx,hiragana32.xlsx,6,0,180,8,1,179,l21.jpg,l22.jpg,m,c,,,,,,,,,,,,,,,,,,,,,,,,,,,,,,,,,,,
,,,,,,,,,,,,,,,,0104,2019-06-11_16h22.58.478,Probabilistic Learning,3.1.0,60,,,,,m,0,0.711,1,0,3,2,1,2,hiragana3.xlsx,hiragana31.xlsx,hiragana32.xlsx,6,0,180,9,1,179,l22.jpg,l21.jpg,c,m,,,,,,,,,,,,,,,,,,,,,,,,,,,,,,,,,,,
,,,,,,,,,,,,,,,,0104,2019-06-11_16h22.58.478,Probabilistic Learning,3.1.0,60,,,,,c,1,0.612,1,0,3,2,1,2,hiragana3.xlsx,hiragana31.xlsx,hiragana32.xlsx,6,0,180,13,1,179,l23.jpg,l24.jpg,c,,c,,,,,,,,,,,,,,,,,,,,,,,,,,,,,,,,,,
,,,,,,,,,,,,,,,,0104,2019-06-11_16h22.58.478,Probabilistic Learning,3.1.0,60,,,,,c,1,0.545,1,0,3,2,1,2,hiragana3.xlsx,hiragana31.xlsx,hiragana32.xlsx,6,0,180,3,1,179,l21.jpg,l22.jpg,c,c,,,,,,,,,,,,,,,,,,,,,,,,,,,,,,,,,,,
,,,,,,,,,,,,,,,,0104,2019-06-11_16h22.58.478,Probabilistic Learning,3.1.0,60,,,,,c,0,0.48,1,0,3,2,1,2,hiragana3.xlsx,hiragana31.xlsx,hiragana32.xlsx,6,0,180,6,1,179,l22.jpg,l21.jpg,m,m,,,,,,,,,,,,,,,,,,,,,,,,,,,,,,,,,,,
,,,,,,,,,,,,,,,,0104,2019-06-11_16h22.58.478,Probabilistic Learning,3.1.0,60,,,,,m,1,1.045,1,0,3,2,1,2,hiragana3.xlsx,hiragana31.xlsx,hiragana32.xlsx,6,0,180,16,1,179,l24.jpg,l23.jpg,m,,m,,,,,,,,,,,,,,,,,,,,,,,,,,,,,,,,,,
,,,,,,,,,,,,,,,,0104,2019-06-11_16h22.58.478,Probabilistic Learning,3.1.0,60,,,,,c,0,0.796,1,0,3,2,1,2,hiragana3.xlsx,hiragana31.xlsx,hiragana32.xlsx,6,0,180,24,1,179,l26.jpg,l25.jpg,m,,,m,,,,,,,,,,,,,,,,,,,,,,,,,,,,,,,,,
,,,,,,,,,,,,,,,,0104,2019-06-11_16h22.58.478,Probabilistic Learning,3.1.0,60,,,,,m,0,0.779,1,0,3,2,1,2,hiragana3.xlsx,hiragana31.xlsx,hiragana32.xlsx,6,0,180,1,1,179,l21.jpg,l22.jpg,c,c,,,,,,,,,,,,,,,,,,,,,,,,,,,,,,,,,,,
,,,,,,,,,,,,,,,,0104,2019-06-11_16h22.58.478,Probabilistic Learning,3.1.0,60,,,,,m,0,1.013,1,0,3,2,1,2,hiragana3.xlsx,hiragana31.xlsx,hiragana32.xlsx,6,0,180,18,1,179,l24.jpg,l23.jpg,c,,m,,,,,,,,,,,,,,,,,,,,,,,,,,,,,,,,,,
,,,,,,,,,,,,,,,,0104,2019-06-11_16h22.58.478,Probabilistic Learning,3.1.0,60,,,,,m,1,1.13,1,0,3,2,1,2,hiragana3.xlsx,hiragana31.xlsx,hiragana32.xlsx,6,0,180,14,1,179,l24.jpg,l23.jpg,m,,m,,,,,,,,,,,,,,,,,,,,,,,,,,,,,,,,,,
,,,,,,,,,,,,,,,,0104,2019-06-11_16h22.58.478,Probabilistic Learning,3.1.0,60,,,,,c,1,0.696,1,0,3,2,1,2,hiragana3.xlsx,hiragana31.xlsx,hiragana32.xlsx,6,0,180,12,1,179,l23.jpg,l24.jpg,c,,c,,,,,,,,,,,,,,,,,,,,,,,,,,,,,,,,,,
,,,,,,,,,,,,,,,,0104,2019-06-11_16h22.58.478,Probabilistic Learning,3.1.0,60,,,,,m,0,0.745,1,0,3,2,1,2,hiragana3.xlsx,hiragana31.xlsx,hiragana32.xlsx,6,0,180,22,1,179,l25.jpg,l26.jpg,c,,,c,,,,,,,,,,,,,,,,,,,,,,,,,,,,,,,,,
,,,,,,,,,,,,,,,,0104,2019-06-11_16h22.58.478,Probabilistic Learning,3.1.0,60,,,,,m,1,0.646,1,0,3,2,1,2,hiragana3.xlsx,hiragana31.xlsx,hiragana32.xlsx,6,0,180,24,1,179,l26.jpg,l25.jpg,m,,,m,,,,,,,,,,,,,,,,,,,,,,,,,,,,,,,,,
,,,,,,,,,,,,,,,,0104,2019-06-11_16h22.58.478,Probabilistic Learning,3.1.0,60,,,,,m,1,0.826,1,0,3,2,1,2,hiragana3.xlsx,hiragana31.xlsx,hiragana32.xlsx,6,0,180,16,1,179,l24.jpg,l23.jpg,m,,m,,,,,,,,,,,,,,,,,,,,,,,,,,,,,,,,,,
,,,,,,,,,,,,,,,,0104,2019-06-11_16h22.58.478,Probabilistic Learning,3.1.0,60,,,,,c,1,0.779,1,0,3,2,1,2,hiragana3.xlsx,hiragana31.xlsx,hiragana32.xlsx,6,0,180,13,1,179,l23.jpg,l24.jpg,c,,c,,,,,,,,,,,,,,,,,,,,,,,,,,,,,,,,,,
,,,,,,,,,,,,,,,,0104,2019-06-11_16h22.58.478,Probabilistic Learning,3.1.0,60,,,,,c,1,0.529,1,0,3,2,1,2,hiragana3.xlsx,hiragana31.xlsx,hiragana32.xlsx,6,0,180,10,1,179,l23.jpg,l24.jpg,c,,c,,,,,,,,,,,,,,,,,,,,,,,,,,,,,,,,,,
,,,,,,,,,,,,,,,,0104,2019-06-11_16h22.58.478,Probabilistic Learning,3.1.0,60,,,,,c,1,1.014,1,0,3,2,1,2,hiragana3.xlsx,hiragana31.xlsx,hiragana32.xlsx,6,0,180,0,1,179,l21.jpg,l22.jpg,c,c,,,,,,,,,,,,,,,,,,,,,,,,,,,,,,,,,,,
,,,,,,,,,,,,,,,,0104,2019-06-11_16h22.58.478,Probabilistic Learning,3.1.0,60,,,,,c,1,0.913,1,0,3,2,1,2,hiragana3.xlsx,hiragana31.xlsx,hiragana32.xlsx,6,0,180,21,1,179,l25.jpg,l26.jpg,c,,,c,,,,,,,,,,,,,,,,,,,,,,,,,,,,,,,,,
,,,,,,,,,,,,,,,,0104,2019-06-11_16h22.58.478,Probabilistic Learning,3.1.0,60,,,,,m,0,0.579,1,0,3,2,1,2,hiragana3.xlsx,hiragana31.xlsx,hiragana32.xlsx,6,0,180,29,1,179,l26.jpg,l25.jpg,c,,,m,,,,,,,,,,,,,,,,,,,,,,,,,,,,,,,,,
,,,,,,,,,,,,,,,,0104,2019-06-11_16h22.58.478,Probabilistic Learning,3.1.0,60,,,,,c,0,0.428,1,0,3,2,1,2,hiragana3.xlsx,hiragana31.xlsx,hiragana32.xlsx,6,0,180,27,1,179,l25.jpg,l26.jpg,m,,,c,,,,,,,,,,,,,,,,,,,,,,,,,,,,,,,,,
,,,,,,,,,,,,,,,,0104,2019-06-11_16h22.58.478,Probabilistic Learning,3.1.0,60,,,,,c,0,0.73,1,0,3,2,1,2,hiragana3.xlsx,hiragana31.xlsx,hiragana32.xlsx,6,0,180,7,1,179,l22.jpg,l21.jpg,m,m,,,,,,,,,,,,,,,,,,,,,,,,,,,,,,,,,,,
,,,,,,,,,,,,,,,,0104,2019-06-11_16h22.58.478,Probabilistic Learning,3.1.0,60,,,,,m,0,0.747,1,0,3,2,1,2,hiragana3.xlsx,hiragana31.xlsx,hiragana32.xlsx,6,0,180,17,1,179,l24.jpg,l23.jpg,c,,m,,,,,,,,,,,,,,,,,,,,,,,,,,,,,,,,,,
,,,,,,,,,,,,,,,,0104,2019-06-11_16h22.58.478,Probabilistic Learning,3.1.0,60,,,,,c,0,0.829,1,0,3,2,1,2,hiragana3.xlsx,hiragana31.xlsx,hiragana32.xlsx,6,0,180,5,1,179,l22.jpg,l21.jpg,m,m,,,,,,,,,,,,,,,,,,,,,,,,,,,,,,,,,,,
,,,,,,,,,,,,,,,,0104,2019-06-11_16h22.58.478,Probabilistic Learning,3.1.0,60,,,,,c,1,0.879,1,0,3,2,1,2,hiragana3.xlsx,hiragana31.xlsx,hiragana32.xlsx,6,0,180,28,1,179,l26.jpg,l25.jpg,c,,,m,,,,,,,,,,,,,,,,,,,,,,,,,,,,,,,,,
,,,,,,,,,,,,,,,,0104,2019-06-11_16h22.58.478,Probabilistic Learning,3.1.0,60,,,,,c,0,0.796,1,0,3,2,1,2,hiragana3.xlsx,hiragana31.xlsx,hiragana32.xlsx,6,0,180,23,1,179,l26.jpg,l25.jpg,m,,,m,,,,,,,,,,,,,,,,,,,,,,,,,,,,,,,,,
,,,,,,,,,,,,,,,,0104,2019-06-11_16h22.58.478,Probabilistic Learning,3.1.0,60,,,,,m,1,0.48,1,0,3,2,1,2,hiragana3.xlsx,hiragana31.xlsx,hiragana32.xlsx,6,0,180,26,1,179,l25.jpg,l26.jpg,m,,,c,,,,,,,,,,,,,,,,,,,,,,,,,,,,,,,,,
,,,,,,,,,,,,,,,,0104,2019-06-11_16h22.58.478,Probabilistic Learning,3.1.0,60,,,,,c,1,0.796,1,0,3,2,1,2,hiragana3.xlsx,hiragana31.xlsx,hiragana32.xlsx,6,0,180,3,1,179,l21.jpg,l22.jpg,c,c,,,,,,,,,,,,,,,,,,,,,,,,,,,,,,,,,,,
,,,,,,,,,,,,,,,,0104,2019-06-11_16h22.58.478,Probabilistic Learning,3.1.0,60,,,,,c,1,0.497,1,0,3,2,1,2,hiragana3.xlsx,hiragana31.xlsx,hiragana32.xlsx,6,0,180,2,1,179,l21.jpg,l22.jpg,c,c,,,,,,,,,,,,,,,,,,,,,,,,,,,,,,,,,,,
,,,,,,,,,,,,,,,,0104,2019-06-11_16h22.58.478,Probabilistic Learning,3.1.0,60,,,,,c,0,0.48,1,0,3,2,1,2,hiragana3.xlsx,hiragana31.xlsx,hiragana32.xlsx,6,0,180,8,1,179,l21.jpg,l22.jpg,m,c,,,,,,,,,,,,,,,,,,,,,,,,,,,,,,,,,,,
,,,,,,,,,,,,,,,,0104,2019-06-11_16h22.58.478,Probabilistic Learning,3.1.0,60,,,,,m,0,0.68,1,0,3,2,1,2,hiragana3.xlsx,hiragana31.xlsx,hiragana32.xlsx,6,0,180,20,1,179,l25.jpg,l26.jpg,c,,,c,,,,,,,,,,,,,,,,,,,,,,,,,,,,,,,,,
,,,,,,,,,,,,,,,,0104,2019-06-11_16h22.58.478,Probabilistic Learning,3.1.0,60,,,,,c,0,0.546,1,0,3,2,1,2,hiragana3.xlsx,hiragana31.xlsx,hiragana32.xlsx,6,0,180,6,1,179,l22.jpg,l21.jpg,m,m,,,,,,,,,,,,,,,,,,,,,,,,,,,,,,,,,,,
,,,,,,,,,,,,,,,,0104,2019-06-11_16h22.58.478,Probabilistic Learning,3.1.0,60,,,,,m,0,0.613,1,0,3,2,1,2,hiragana3.xlsx,hiragana31.xlsx,hiragana32.xlsx,6,0,180,9,1,179,l22.jpg,l21.jpg,c,m,,,,,,,,,,,,,,,,,,,,,,,,,,,,,,,,,,,
,,,,,,,,,,,,,,,,0104,2019-06-11_16h22.58.478,Probabilistic Learning,3.1.0,60,,,,,c,0,0.795,1,0,3,2,1,2,hiragana3.xlsx,hiragana31.xlsx,hiragana32.xlsx,6,0,180,19,1,179,l23.jpg,l24.jpg,m,,c,,,,,,,,,,,,,,,,,,,,,,,,,,,,,,,,,,
,,,,,,,,,,,,,,,,0104,2019-06-11_16h22.58.478,Probabilistic Learning,3.1.0,60,,,,,m,1,0.88,1,0,3,2,1,2,hiragana3.xlsx,hiragana31.xlsx,hiragana32.xlsx,6,0,180,25,1,179,l26.jpg,l25.jpg,m,,,m,,,,,,,,,,,,,,,,,,,,,,,,,,,,,,,,,
,,,,,,,,,,,,,,,,0104,2019-06-11_16h22.58.478,Probabilistic Learning,3.1.0,60,,,,,m,0,0.729,1,0,3,2,1,2,hiragana3.xlsx,hiragana31.xlsx,hiragana32.xlsx,6,0,180,18,1,179,l24.jpg,l23.jpg,c,,m,,,,,,,,,,,,,,,,,,,,,,,,,,,,,,,,,,
,,,,,,,,,,,,,,,,0104,2019-06-11_16h22.58.478,Probabilistic Learning,3.1.0,60,,,,,m,1,0.631,1,0,3,2,1,2,hiragana3.xlsx,hiragana31.xlsx,hiragana32.xlsx,6,0,180,4,1,179,l22.jpg,l21.jpg,m,m,,,,,,,,,,,,,,,,,,,,,,,,,,,,,,,,,,,
,,,,,,,,,,,,,,,,0104,2019-06-11_16h22.58.478,Probabilistic Learning,3.1.0,60,,,,,c,1,0.579,1,0,3,2,1,2,hiragana3.xlsx,hiragana31.xlsx,hiragana32.xlsx,6,0,180,1,1,179,l21.jpg,l22.jpg,c,c,,,,,,,,,,,,,,,,,,,,,,,,,,,,,,,,,,,
,,,,,,,,,,,,,,,,0104,2019-06-11_16h22.58.478,Probabilistic Learning,3.1.0,60,,,,,m,1,0.896,1,0,3,2,1,2,hiragana3.xlsx,hiragana31.xlsx,hiragana32.xlsx,6,0,180,15,1,179,l24.jpg,l23.jpg,m,,m,,,,,,,,,,,,,,,,,,,,,,,,,,,,,,,,,,
,,,,,,,,,,,,,,,,0104,2019-06-11_16h22.58.478,Probabilistic Learning,3.1.0,60,,,,,c,1,0.679,1,0,3,2,1,2,hiragana3.xlsx,hiragana31.xlsx,hiragana32.xlsx,6,0,180,11,1,179,l23.jpg,l24.jpg,c,,c,,,,,,,,,,,,,,,,,,,,,,,,,,,,,,,,,,
,,,,,,,,,,,,,,,,0104,2019-06-11_16h22.58.478,Probabilistic Learning,3.1.0,60,,,,,m,0,0.746,1,0,3,2,1,2,hiragana3.xlsx,hiragana31.xlsx,hiragana32.xlsx,6,0,180,9,1,179,l22.jpg,l21.jpg,c,m,,,,,,,,,,,,,,,,,,,,,,,,,,,,,,,,,,,
,,,,,,,,,,,,,,,,0104,2019-06-11_16h22.58.478,Probabilistic Learning,3.1.0,60,,,,,c,1,0.629,1,0,3,2,1,2,hiragana3.xlsx,hiragana31.xlsx,hiragana32.xlsx,6,0,180,12,1,179,l23.jpg,l24.jpg,c,,c,,,,,,,,,,,,,,,,,,,,,,,,,,,,,,,,,,
,,,,,,,,,,,,,,,,0104,2019-06-11_16h22.58.478,Probabilistic Learning,3.1.0,60,,,,,c,0,0.795,1,0,3,2,1,2,hiragana3.xlsx,hiragana31.xlsx,hiragana32.xlsx,6,0,180,19,1,179,l23.jpg,l24.jpg,m,,c,,,,,,,,,,,,,,,,,,,,,,,,,,,,,,,,,,
,,,,,,,,,,,,,,,,0104,2019-06-11_16h22.58.478,Probabilistic Learning,3.1.0,60,,,,,m,1,0.896,1,0,3,2,1,2,hiragana3.xlsx,hiragana31.xlsx,hiragana32.xlsx,6,0,180,25,1,179,l26.jpg,l25.jpg,m,,,m,,,,,,,,,,,,,,,,,,,,,,,,,,,,,,,,,
,,,,,,,,,,,,,,,,0104,2019-06-11_16h22.58.478,Probabilistic Learning,3.1.0,60,,,,,c,1,0.812,1,0,3,2,1,2,hiragana3.xlsx,hiragana31.xlsx,hiragana32.xlsx,6,0,180,0,1,179,l21.jpg,l22.jpg,c,c,,,,,,,,,,,,,,,,,,,,,,,,,,,,,,,,,,,
,,,,,,,,,,,,,,,,0104,2019-06-11_16h22.58.478,Probabilistic Learning,3.1.0,60,,,,,c,0,0.912,1,0,3,2,1,2,hiragana3.xlsx,hiragana31.xlsx,hiragana32.xlsx,6,0,180,26,1,179,l25.jpg,l26.jpg,m,,,c,,,,,,,,,,,,,,,,,,,,,,,,,,,,,,,,,
,,,,,,,,,,,,,,,,0104,2019-06-11_16h22.58.478,Probabilistic Learning,3.1.0,60,,,,,c,1,0.646,1,0,3,2,1,2,hiragana3.xlsx,hiragana31.xlsx,hiragana32.xlsx,6,0,180,28,1,179,l26.jpg,l25.jpg,c,,,m,,,,,,,,,,,,,,,,,,,,,,,,,,,,,,,,,
,,,,,,,,,,,,,,,,0104,2019-06-11_16h22.58.478,Probabilistic Learning,3.1.0,60,,,,,m,1,0.814,1,0,3,2,1,2,hiragana3.xlsx,hiragana31.xlsx,hiragana32.xlsx,6,0,180,14,1,179,l24.jpg,l23.jpg,m,,m,,,,,,,,,,,,,,,,,,,,,,,,,,,,,,,,,,
,,,,,,,,,,,,,,,,0104,2019-06-11_16h22.58.478,Probabilistic Learning,3.1.0,60,,,,,c,0,0.762,1,0,3,2,1,2,hiragana3.xlsx,hiragana31.xlsx,hiragana32.xlsx,6,0,180,6,1,179,l22.jpg,l21.jpg,m,m,,,,,,,,,,,,,,,,,,,,,,,,,,,,,,,,,,,
,,,,,,,,,,,,,,,,0104,2019-06-11_16h22.58.478,Probabilistic Learning,3.1.0,60,,,,,c,1,0.662,1,0,3,2,1,2,hiragana3.xlsx,hiragana31.xlsx,hiragana32.xlsx,6,0,180,2,1,179,l21.jpg,l22.jpg,c,c,,,,,,,,,,,,,,,,,,,,,,,,,,,,,,,,,,,
,,,,,,,,,,,,,,,,0104,2019-06-11_16h22.58.478,Probabilistic Learning,3.1.0,60,,,,,c,1,0.779,1,0,3,2,1,2,hiragana3.xlsx,hiragana31.xlsx,hiragana32.xlsx,6,0,180,10,1,179,l23.jpg,l24.jpg,c,,c,,,,,,,,,,,,,,,,,,,,,,,,,,,,,,,,,,
,,,,,,,,,,,,,,,,0104,2019-06-11_16h22.58.478,Probabilistic Learning,3.1.0,60,,,,,m,1,0.58,1,0,3,2,1,2,hiragana3.xlsx,hiragana31.xlsx,hiragana32.xlsx,6,0,180,16,1,179,l24.jpg,l23.jpg,m,,m,,,,,,,,,,,,,,,,,,,,,,,,,,,,,,,,,,
,,,,,,,,,,,,,,,,0104,2019-06-11_16h22.58.478,Probabilistic Learning,3.1.0,60,,,,,m,0,0.463,1,0,3,2,1,2,hiragana3.xlsx,hiragana31.xlsx,hiragana32.xlsx,6,0,180,17,1,179,l24.jpg,l23.jpg,c,,m,,,,,,,,,,,,,,,,,,,,,,,,,,,,,,,,,,
,,,,,,,,,,,,,,,,0104,2019-06-11_16h22.58.478,Probabilistic Learning,3.1.0,60,,,,,m,1,0.862,1,0,3,2,1,2,hiragana3.xlsx,hiragana31.xlsx,hiragana32.xlsx,6,0,180,27,1,179,l25.jpg,l26.jpg,m,,,c,,,,,,,,,,,,,,,,,,,,,,,,,,,,,,,,,
,,,,,,,,,,,,,,,,0104,2019-06-11_16h22.58.478,Probabilistic Learning,3.1.0,60,,,,,m,0,0.613,1,0,3,2,1,2,hiragana3.xlsx,hiragana31.xlsx,hiragana32.xlsx,6,0,180,22,1,179,l25.jpg,l26.jpg,c,,,c,,,,,,,,,,,,,,,,,,,,,,,,,,,,,,,,,
,,,,,,,,,,,,,,,,0104,2019-06-11_16h22.58.478,Probabilistic Learning,3.1.0,60,,,,,c,0,0.429,1,0,3,2,1,2,hiragana3.xlsx,hiragana31.xlsx,hiragana32.xlsx,6,0,180,23,1,179,l26.jpg,l25.jpg,m,,,m,,,,,,,,,,,,,,,,,,,,,,,,,,,,,,,,,
,,,,,,,,,,,,,,,,0104,2019-06-11_16h22.58.478,Probabilistic Learning,3.1.0,60,,,,,m,1,0.579,1,0,3,2,1,2,hiragana3.xlsx,hiragana31.xlsx,hiragana32.xlsx,6,0,180,15,1,179,l24.jpg,l23.jpg,m,,m,,,,,,,,,,,,,,,,,,,,,,,,,,,,,,,,,,
,,,,,,,,,,,,,,,,0104,2019-06-11_16h22.58.478,Probabilistic Learning,3.1.0,60,,,,,m,1,1.078,1,0,3,2,1,2,hiragana3.xlsx,hiragana31.xlsx,hiragana32.xlsx,6,0,180,5,1,179,l22.jpg,l21.jpg,m,m,,,,,,,,,,,,,,,,,,,,,,,,,,,,,,,,,,,
,,,,,,,,,,,,,,,,0104,2019-06-11_16h22.58.478,Probabilistic Learning,3.1.0,60,,,,,m,0,0.83,1,0,3,2,1,2,hiragana3.xlsx,hiragana31.xlsx,hiragana32.xlsx,6,0,180,20,1,179,l25.jpg,l26.jpg,c,,,c,,,,,,,,,,,,,,,,,,,,,,,,,,,,,,,,,
,,,,,,,,,,,,,,,,0104,2019-06-11_16h22.58.478,Probabilistic Learning,3.1.0,60,,,,,c,0,0.862,1,0,3,2,1,2,hiragana3.xlsx,hiragana31.xlsx,hiragana32.xlsx,6,0,180,8,1,179,l21.jpg,l22.jpg,m,c,,,,,,,,,,,,,,,,,,,,,,,,,,,,,,,,,,,
,,,,,,,,,,,,,,,,0104,2019-06-11_16h22.58.478,Probabilistic Learning,3.1.0,60,,,,,c,1,0.846,1,0,3,2,1,2,hiragana3.xlsx,hiragana31.xlsx,hiragana32.xlsx,6,0,180,13,1,179,l23.jpg,l24.jpg,c,,c,,,,,,,,,,,,,,,,,,,,,,,,,,,,,,,,,,
,,,,,,,,,,,,,,,,0104,2019-06-11_16h22.58.478,Probabilistic Learning,3.1.0,60,,,,,c,1,0.612,1,0,3,2,1,2,hiragana3.xlsx,hiragana31.xlsx,hiragana32.xlsx,6,0,180,3,1,179,l21.jpg,l22.jpg,c,c,,,,,,,,,,,,,,,,,,,,,,,,,,,,,,,,,,,
,,,,,,,,,,,,,,,,0104,2019-06-11_16h22.58.478,Probabilistic Learning,3.1.0,60,,,,,m,1,1.112,1,0,3,2,1,2,hiragana3.xlsx,hiragana31.xlsx,hiragana32.xlsx,6,0,180,24,1,179,l26.jpg,l25.jpg,m,,,m,,,,,,,,,,,,,,,,,,,,,,,,,,,,,,,,,
,,,,,,,,,,,,,,,,0104,2019-06-11_16h22.58.478,Probabilistic Learning,3.1.0,60,,,,,m,1,0.762,1,0,3,2,1,2,hiragana3.xlsx,hiragana31.xlsx,hiragana32.xlsx,6,0,180,7,1,179,l22.jpg,l21.jpg,m,m,,,,,,,,,,,,,,,,,,,,,,,,,,,,,,,,,,,
,,,,,,,,,,,,,,,,0104,2019-06-11_16h22.58.478,Probabilistic Learning,3.1.0,60,,,,,m,0,0.829,1,0,3,2,1,2,hiragana3.xlsx,hiragana31.xlsx,hiragana32.xlsx,6,0,180,18,1,179,l24.jpg,l23.jpg,c,,m,,,,,,,,,,,,,,,,,,,,,,,,,,,,,,,,,,
,,,,,,,,,,,,,,,,0104,2019-06-11_16h22.58.478,Probabilistic Learning,3.1.0,60,,,,,m,1,0.597,1,0,3,2,1,2,hiragana3.xlsx,hiragana31.xlsx,hiragana32.xlsx,6,0,180,4,1,179,l22.jpg,l21.jpg,m,m,,,,,,,,,,,,,,,,,,,,,,,,,,,,,,,,,,,
,,,,,,,,,,,,,,,,0104,2019-06-11_16h22.58.478,Probabilistic Learning,3.1.0,60,,,,,c,1,0.712,1,0,3,2,1,2,hiragana3.xlsx,hiragana31.xlsx,hiragana32.xlsx,6,0,180,21,1,179,l25.jpg,l26.jpg,c,,,c,,,,,,,,,,,,,,,,,,,,,,,,,,,,,,,,,
,,,,,,,,,,,,,,,,0104,2019-06-11_16h22.58.478,Probabilistic Learning,3.1.0,60,,,,,c,1,0.795,1,0,3,2,1,2,hiragana3.xlsx,hiragana31.xlsx,hiragana32.xlsx,6,0,180,11,1,179,l23.jpg,l24.jpg,c,,c,,,,,,,,,,,,,,,,,,,,,,,,,,,,,,,,,,
,,,,,,,,,,,,,,,,0104,2019-06-11_16h22.58.478,Probabilistic Learning,3.1.0,60,,,,,m,0,0.744,1,0,3,2,1,2,hiragana3.xlsx,hiragana31.xlsx,hiragana32.xlsx,6,0,180,29,1,179,l26.jpg,l25.jpg,c,,,m,,,,,,,,,,,,,,,,,,,,,,,,,,,,,,,,,
,,,,,,,,,,,,,,,,0104,2019-06-11_16h22.58.478,Probabilistic Learning,3.1.0,60,,,,,c,1,0.596,1,0,3,2,1,2,hiragana3.xlsx,hiragana31.xlsx,hiragana32.xlsx,,,,,,,,,,,,,m,1.692,m,8.873,c,0.614,2,0,92,34,1,91,l22.jpg,l26.jpg,B,F,,m,,,,,,,,,,,,,,,
,,,,,,,,,,,,,,,,0104,2019-06-11_16h22.58.478,Probabilistic Learning,3.1.0,60,,,,,,,,1,0,3,2,1,2,hiragana3.xlsx,hiragana31.xlsx,hiragana32.xlsx,,,,,,,,,,,,,,,,,m,0.663,2,0,92,37,1,91,l26.jpg,l22.jpg,F,B,,c,,,,,,,,,,,,,,,
,,,,,,,,,,,,,,,,0104,2019-06-11_16h22.58.478,Probabilistic Learning,3.1.0,60,,,,,,,,1,0,3,2,1,2,hiragana3.xlsx,hiragana31.xlsx,hiragana32.xlsx,,,,,,,,,,,,,,,,,c,0.597,2,0,92,14,1,91,l21.jpg,l25.jpg,A,E,c,,,,,,,,,,,,,,,,
,,,,,,,,,,,,,,,,0104,2019-06-11_16h22.58.478,Probabilistic Learning,3.1.0,60,,,,,,,,1,0,3,2,1,2,hiragana3.xlsx,hiragana31.xlsx,hiragana32.xlsx,,,,,,,,,,,,,,,,,m,0.728,2,0,92,32,1,91,l25.jpg,l22.jpg,E,B,,c,,,,,,,,,,,,,,,
,,,,,,,,,,,,,,,,0104,2019-06-11_16h22.58.478,Probabilistic Learning,3.1.0,60,,,,,,,,1,0,3,2,1,2,hiragana3.xlsx,hiragana31.xlsx,hiragana32.xlsx,,,,,,,,,,,,,,,,,c,0.747,2,0,92,26,1,91,l22.jpg,l24.jpg,B,D,,m,,,,,,,,,,,,,,,
,,,,,,,,,,,,,,,,0104,2019-06-11_16h22.58.478,Probabilistic Learning,3.1.0,60,,,,,,,,1,0,3,2,1,2,hiragana3.xlsx,hiragana31.xlsx,hiragana32.xlsx,,,,,,,,,,,,,,,,,m,0.597,2,0,92,39,1,91,l25.jpg,l23.jpg,e,c,,,,,,,,,,,,,,,,,
,,,,,,,,,,,,,,,,0104,2019-06-11_16h22.58.478,Probabilistic Learning,3.1.0,60,,,,,,,,1,0,3,2,1,2,hiragana3.xlsx,hiragana31.xlsx,hiragana32.xlsx,,,,,,,,,,,,,,,,,m,0.88,2,0,92,8,1,91,l23.jpg,l21.jpg,C,A,m,,,,,,,,,,,,,,,,
,,,,,,,,,,,,,,,,0104,2019-06-11_16h22.58.478,Probabilistic Learning,3.1.0,60,,,,,,,,1,0,3,2,1,2,hiragana3.xlsx,hiragana31.xlsx,hiragana32.xlsx,,,,,,,,,,,,,,,,,c,0.645,2,0,92,5,1,91,l26.jpg,l25.jpg,F,E,,,,,,,,,,,,,,,,,
,,,,,,,,,,,,,,,,0104,2019-06-11_16h22.58.478,Probabilistic Learning,3.1.0,60,,,,,,,,1,0,3,2,1,2,hiragana3.xlsx,hiragana31.xlsx,hiragana32.xlsx,,,,,,,,,,,,,,,,,m,0.763,2,0,92,29,1,91,l24.jpg,l22.jpg,D,B,,c,,,,,,,,,,,,,,,
,,,,,,,,,,,,,,,,0104,2019-06-11_16h22.58.478,Probabilistic Learning,3.1.0,60,,,,,,,,1,0,3,2,1,2,hiragana3.xlsx,hiragana31.xlsx,hiragana32.xlsx,,,,,,,,,,,,,,,,,c,0.595,2,0,92,0,1,91,l21.jpg,l22.jpg,A,B,,,,,,,,,,,,,,,,,
,,,,,,,,,,,,,,,,0104,2019-06-11_16h22.58.478,Probabilistic Learning,3.1.0,60,,,,,,,,1,0,3,2,1,2,hiragana3.xlsx,hiragana31.xlsx,hiragana32.xlsx,,,,,,,,,,,,,,,,,m,0.613,2,0,92,21,1,91,l26.jpg,l21.jpg,F,A,m,,,,,,,,,,,,,,,,
,,,,,,,,,,,,,,,,0104,2019-06-11_16h22.58.478,Probabilistic Learning,3.1.0,60,,,,,,,,1,0,3,2,1,2,hiragana3.xlsx,hiragana31.xlsx,hiragana32.xlsx,,,,,,,,,,,,,,,,,m,0.796,2,0,92,33,1,91,l25.jpg,l22.jpg,E,B,,c,,,,,,,,,,,,,,,
,,,,,,,,,,,,,,,,0104,2019-06-11_16h22.58.478,Probabilistic Learning,3.1.0,60,,,,,,,,1,0,3,2,1,2,hiragana3.xlsx,hiragana31.xlsx,hiragana32.xlsx,,,,,,,,,,,,,,,,,c,0.68,2,0,92,25,1,91,l23.jpg,l22.jpg,C,B,,c,,,,,,,,,,,,,,,
,,,,,,,,,,,,,,,,0104,2019-06-11_16h22.58.478,Probabilistic Learning,3.1.0,60,,,,,,,,1,0,3,2,1,2,hiragana3.xlsx,hiragana31.xlsx,hiragana32.xlsx,,,,,,,,,,,,,,,,,m,0.563,2,0,92,3,1,91,l24.jpg,l23.jpg,D,C,,,,,,,,,,,,,,,,,
,,,,,,,,,,,,,,,,0104,2019-06-11_16h22.58.478,Probabilistic Learning,3.1.0,60,,,,,,,,1,0,3,2,1,2,hiragana3.xlsx,hiragana31.xlsx,hiragana32.xlsx,,,,,,,,,,,,,,,,,m,0.895,2,0,92,12,1,91,l24.jpg,l21.jpg,D,A,m,,,,,,,,,,,,,,,,
,,,,,,,,,,,,,,,,0104,2019-06-11_16h22.58.478,Probabilistic Learning,3.1.0,60,,,,,,,,1,0,3,2,1,2,hiragana3.xlsx,hiragana31.xlsx,hiragana32.xlsx,,,,,,,,,,,,,,,,,m,0.646,2,0,92,13,1,91,l24.jpg,l21.jpg,D,A,m,,,,,,,,,,,,,,,,
,,,,,,,,,,,,,,,,0104,2019-06-11_16h22.58.478,Probabilistic Learning,3.1.0,60,,,,,,,,1,0,3,2,1,2,hiragana3.xlsx,hiragana31.xlsx,hiragana32.xlsx,,,,,,,,,,,,,,,,,m,0.58,2,0,92,17,1,91,l25.jpg,l21.jpg,E,A,m,,,,,,,,,,,,,,,,
,,,,,,,,,,,,,,,,0104,2019-06-11_16h22.58.478,Probabilistic Learning,3.1.0,60,,,,,,,,1,0,3,2,1,2,hiragana3.xlsx,hiragana31.xlsx,hiragana32.xlsx,,,,,,,,,,,,,,,,,c,0.83,2,0,92,24,1,91,l23.jpg,l22.jpg,C,B,,c,,,,,,,,,,,,,,,
,,,,,,,,,,,,,,,,0104,2019-06-11_16h22.58.478,Probabilistic Learning,3.1.0,60,,,,,,,,1,0,3,2,1,2,hiragana3.xlsx,hiragana31.xlsx,hiragana32.xlsx,,,,,,,,,,,,,,,,,c,0.648,2,0,92,2,1,91,l23.jpg,l24.jpg,C,D,,,,,,,,,,,,,,,,,
,,,,,,,,,,,,,,,,0104,2019-06-11_16h22.58.478,Probabilistic Learning,3.1.0,60,,,,,,,,1,0,3,2,1,2,hiragana3.xlsx,hiragana31.xlsx,hiragana32.xlsx,,,,,,,,,,,,,,,,,m,0.597,2,0,92,36,1,91,l26.jpg,l22.jpg,F,B,,c,,,,,,,,,,,,,,,
,,,,,,,,,,,,,,,,0104,2019-06-11_16h22.58.478,Probabilistic Learning,3.1.0,60,,,,,,,,1,0,3,2,1,2,hiragana3.xlsx,hiragana31.xlsx,hiragana32.xlsx,,,,,,,,,,,,,,,,,c,0.662,2,0,92,38,1,91,l23.jpg,l25.jpg,C,E,,,,,,,,,,,,,,,,,
,,,,,,,,,,,,,,,,0104,2019-06-11_16h22.58.478,Probabilistic Learning,3.1.0,60,,,,,,,,1,0,3,2,1,2,hiragana3.xlsx,hiragana31.xlsx,hiragana32.xlsx,,,,,,,,,,,,,,,,,m,0.529,2,0,92,4,1,91,l25.jpg,l26.jpg,E,F,,,,,,,,,,,,,,,,,
,,,,,,,,,,,,,,,,0104,2019-06-11_16h22.58.478,Probabilistic Learning,3.1.0,60,,,,,,,,1,0,3,2,1,2,hiragana3.xlsx,hiragana31.xlsx,hiragana32.xlsx,,,,,,,,,,,,,,,,,c,0.697,2,0,92,19,1,91,l21.jpg,l26.jpg,A,F,c,,,,,,,,,,,,,,,,
,,,,,,,,,,,,,,,,0104,2019-06-11_16h22.58.478,Probabilistic Learning,3.1.0,60,,,,,,,,1,0,3,2,1,2,hiragana3.xlsx,hiragana31.xlsx,hiragana32.xlsx,,,,,,,,,,,,,,,,,c,0.896,2,0,92,10,1,91,l21.jpg,l24.jpg,A,D,c,,,,,,,,,,,,,,,,
,,,,,,,,,,,,,,,,0104,2019-06-11_16h22.58.478,Probabilistic Learning,3.1.0,60,,,,,,,,1,0,3,2,1,2,hiragana3.xlsx,hiragana31.xlsx,hiragana32.xlsx,,,,,,,,,,,,,,,,,m,0.58,2,0,92,43,1,91,l25.jpg,l24.jpg,e,d,,,,,,,,,,,,,,,,,
,,,,,,,,,,,,,,,,0104,2019-06-11_16h22.58.478,Probabilistic Learning,3.1.0,60,,,,,,,,1,0,3,2,1,2,hiragana3.xlsx,hiragana31.xlsx,hiragana32.xlsx,,,,,,,,,,,,,,,,,m,0.829,2,0,92,22,1,91,l22.jpg,l23.jpg,B,C,,m,,,,,,,,,,,,,,,
,,,,,,,,,,,,,,,,0104,2019-06-11_16h22.58.478,Probabilistic Learning,3.1.0,60,,,,,,,,1,0,3,2,1,2,hiragana3.xlsx,hiragana31.xlsx,hiragana32.xlsx,,,,,,,,,,,,,,,,,m,0.762,2,0,92,20,1,91,l26.jpg,l21.jpg,F,A,m,,,,,,,,,,,,,,,,
,,,,,,,,,,,,,,,,0104,2019-06-11_16h22.58.478,Probabilistic Learning,3.1.0,60,,,,,,,,1,0,3,2,1,2,hiragana3.xlsx,hiragana31.xlsx,hiragana32.xlsx,,,,,,,,,,,,,,,,,c,0.964,2,0,92,40,1,91,l23.jpg,l26.jpg,c,f,,,,,,,,,,,,,,,,,
,,,,,,,,,,,,,,,,0104,2019-06-11_16h22.58.478,Probabilistic Learning,3.1.0,60,,,,,,,,1,0,3,2,1,2,hiragana3.xlsx,hiragana31.xlsx,hiragana32.xlsx,,,,,,,,,,,,,,,,,c,0.929,2,0,92,11,1,91,l21.jpg,l24.jpg,A,D,c,,,,,,,,,,,,,,,,
,,,,,,,,,,,,,,,,0104,2019-06-11_16h22.58.478,Probabilistic Learning,3.1.0,60,,,,,,,,1,0,3,2,1,2,hiragana3.xlsx,hiragana31.xlsx,hiragana32.xlsx,,,,,,,,,,,,,,,,,m,0.562,2,0,92,35,1,91,l22.jpg,l26.jpg,B,F,,m,,,,,,,,,,,,,,,
,,,,,,,,,,,,,,,,0104,2019-06-11_16h22.58.478,Probabilistic Learning,3.1.0,60,,,,,,,,1,0,3,2,1,2,hiragana3.xlsx,hiragana31.xlsx,hiragana32.xlsx,,,,,,,,,,,,,,,,,m,0.763,2,0,92,30,1,91,l22.jpg,l25.jpg,B,E,,m,,,,,,,,,,,,,,,
,,,,,,,,,,,,,,,,0104,2019-06-11_16h22.58.478,Probabilistic Learning,3.1.0,60,,,,,,,,1,0,3,2,1,2,hiragana3.xlsx,hiragana31.xlsx,hiragana32.xlsx,,,,,,,,,,,,,,,,,m,0.946,2,0,92,42,1,91,l24.jpg,l25.jpg,d,e,,,,,,,,,,,,,,,,,
,,,,,,,,,,,,,,,,0104,2019-06-11_16h22.58.478,Probabilistic Learning,3.1.0,60,,,,,,,,1,0,3,2,1,2,hiragana3.xlsx,hiragana31.xlsx,hiragana32.xlsx,,,,,,,,,,,,,,,,,c,0.628,2,0,92,16,1,91,l25.jpg,l21.jpg,E,A,m,,,,,,,,,,,,,,,,
,,,,,,,,,,,,,,,,0104,2019-06-11_16h22.58.478,Probabilistic Learning,3.1.0,60,,,,,,,,1,0,3,2,1,2,hiragana3.xlsx,hiragana31.xlsx,hiragana32.xlsx,,,,,,,,,,,,,,,,,m,0.597,2,0,92,23,1,91,l22.jpg,l23.jpg,B,C,,m,,,,,,,,,,,,,,,
,,,,,,,,,,,,,,,,0104,2019-06-11_16h22.58.478,Probabilistic Learning,3.1.0,60,,,,,,,,1,0,3,2,1,2,hiragana3.xlsx,hiragana31.xlsx,hiragana32.xlsx,,,,,,,,,,,,,,,,,c,0.614,2,0,92,31,1,91,l22.jpg,l25.jpg,B,E,,m,,,,,,,,,,,,,,,
,,,,,,,,,,,,,,,,0104,2019-06-11_16h22.58.478,Probabilistic Learning,3.1.0,60,,,,,,,,1,0,3,2,1,2,hiragana3.xlsx,hiragana31.xlsx,hiragana32.xlsx,,,,,,,,,,,,,,,,,m,0.913,2,0,92,9,1,91,l23.jpg,l21.jpg,C,A,m,,,,,,,,,,,,,,,,
,,,,,,,,,,,,,,,,0104,2019-06-11_16h22.58.478,Probabilistic Learning,3.1.0,60,,,,,,,,1,0,3,2,1,2,hiragana3.xlsx,hiragana31.xlsx,hiragana32.xlsx,,,,,,,,,,,,,,,,,m,0.614,2,0,92,41,1,91,l26.jpg,l23.jpg,f,c,,,,,,,,,,,,,,,,,
,,,,,,,,,,,,,,,,0104,2019-06-11_16h22.58.478,Probabilistic Learning,3.1.0,60,,,,,,,,1,0,3,2,1,2,hiragana3.xlsx,hiragana31.xlsx,hiragana32.xlsx,,,,,,,,,,,,,,,,,c,0.663,2,0,92,18,1,91,l21.jpg,l26.jpg,A,F,c,,,,,,,,,,,,,,,,
,,,,,,,,,,,,,,,,0104,2019-06-11_16h22.58.478,Probabilistic Learning,3.1.0,60,,,,,,,,1,0,3,2,1,2,hiragana3.xlsx,hiragana31.xlsx,hiragana32.xlsx,,,,,,,,,,,,,,,,,m,0.695,2,0,92,1,1,91,l22.jpg,l21.jpg,B,A,,,,,,,,,,,,,,,,,
,,,,,,,,,,,,,,,,0104,2019-06-11_16h22.58.478,Probabilistic Learning,3.1.0,60,,,,,,,,1,0,3,2,1,2,hiragana3.xlsx,hiragana31.xlsx,hiragana32.xlsx,,,,,,,,,,,,,,,,,c,0.796,2,0,92,27,1,91,l22.jpg,l24.jpg,B,D,,m,,,,,,,,,,,,,,,
,,,,,,,,,,,,,,,,0104,2019-06-11_16h22.58.478,Probabilistic Learning,3.1.0,60,,,,,,,,1,0,3,2,1,2,hiragana3.xlsx,hiragana31.xlsx,hiragana32.xlsx,,,,,,,,,,,,,,,,,c,0.779,2,0,92,45,1,91,l26.jpg,l24.jpg,f,d,,,,,,,,,,,,,,,,,
,,,,,,,,,,,,,,,,0104,2019-06-11_16h22.58.478,Probabilistic Learning,3.1.0,60,,,,,,,,1,0,3,2,1,2,hiragana3.xlsx,hiragana31.xlsx,hiragana32.xlsx,,,,,,,,,,,,,,,,,c,1.064,2,0,92,7,1,91,l21.jpg,l23.jpg,A,C,c,,,,,,,,,,,,,,,,
,,,,,,,,,,,,,,,,0104,2019-06-11_16h22.58.478,Probabilistic Learning,3.1.0,60,,,,,,,,1,0,3,2,1,2,hiragana3.xlsx,hiragana31.xlsx,hiragana32.xlsx,,,,,,,,,,,,,,,,,c,0.562,2,0,92,15,1,91,l21.jpg,l25.jpg,A,E,c,,,,,,,,,,,,,,,,
,,,,,,,,,,,,,,,,0104,2019-06-11_16h22.58.478,Probabilistic Learning,3.1.0,60,,,,,,,,1,0,3,2,1,2,hiragana3.xlsx,hiragana31.xlsx,hiragana32.xlsx,,,,,,,,,,,,,,,,,m,0.779,2,0,92,28,1,91,l24.jpg,l22.jpg,D,B,,c,,,,,,,,,,,,,,,
,,,,,,,,,,,,,,,,0104,2019-06-11_16h22.58.478,Probabilistic Learning,3.1.0,60,,,,,,,,1,0,3,2,1,2,hiragana3.xlsx,hiragana31.xlsx,hiragana32.xlsx,,,,,,,,,,,,,,,,,c,0.628,2,0,92,6,1,91,l21.jpg,l23.jpg,A,C,c,,,,,,,,,,,,,,,,
,,,,,,,,,,,,,,,,0104,2019-06-11_16h22.58.478,Probabilistic Learning,3.1.0,60,,,,,,,,1,0,3,2,1,2,hiragana3.xlsx,hiragana31.xlsx,hiragana32.xlsx,,,,,,,,,,,,,,,,,m,0.762,2,0,92,44,1,91,l24.jpg,l26.jpg,d,f,,,,,,,,,,,,,,,,,
,,,,,,,,,,,,,,,,0104,2019-06-11_16h22.58.478,Probabilistic Learning,3.1.0,60,,,,,,,,1,0,3,2,1,2,hiragana3.xlsx,hiragana31.xlsx,hiragana32.xlsx,,,,,,,,,,,,,,,,,m,0.697,2,0,92,12,1,91,l24.jpg,l21.jpg,D,A,m,,,,,,,,,,,,,,,,
,,,,,,,,,,,,,,,,0104,2019-06-11_16h22.58.478,Probabilistic Learning,3.1.0,60,,,,,,,,1,0,3,2,1,2,hiragana3.xlsx,hiragana31.xlsx,hiragana32.xlsx,,,,,,,,,,,,,,,,,c,0.547,2,0,92,24,1,91,l23.jpg,l22.jpg,C,B,,c,,,,,,,,,,,,,,,
,,,,,,,,,,,,,,,,0104,2019-06-11_16h22.58.478,Probabilistic Learning,3.1.0,60,,,,,,,,1,0,3,2,1,2,hiragana3.xlsx,hiragana31.xlsx,hiragana32.xlsx,,,,,,,,,,,,,,,,,c,0.461,2,0,92,0,1,91,l21.jpg,l22.jpg,A,B,,,,,,,,,,,,,,,,,
,,,,,,,,,,,,,,,,0104,2019-06-11_16h22.58.478,Probabilistic Learning,3.1.0,60,,,,,,,,1,0,3,2,1,2,hiragana3.xlsx,hiragana31.xlsx,hiragana32.xlsx,,,,,,,,,,,,,,,,,m,0.646,2,0,92,44,1,91,l24.jpg,l26.jpg,d,f,,,,,,,,,,,,,,,,,
,,,,,,,,,,,,,,,,0104,2019-06-11_16h22.58.478,Probabilistic Learning,3.1.0,60,,,,,,,,1,0,3,2,1,2,hiragana3.xlsx,hiragana31.xlsx,hiragana32.xlsx,,,,,,,,,,,,,,,,,m,0.596,2,0,92,39,1,91,l25.jpg,l23.jpg,e,c,,,,,,,,,,,,,,,,,
,,,,,,,,,,,,,,,,0104,2019-06-11_16h22.58.478,Probabilistic Learning,3.1.0,60,,,,,,,,1,0,3,2,1,2,hiragana3.xlsx,hiragana31.xlsx,hiragana32.xlsx,,,,,,,,,,,,,,,,,m,0.93,2,0,92,34,1,91,l22.jpg,l26.jpg,B,F,,m,,,,,,,,,,,,,,,
,,,,,,,,,,,,,,,,0104,2019-06-11_16h22.58.478,Probabilistic Learning,3.1.0,60,,,,,,,,1,0,3,2,1,2,hiragana3.xlsx,hiragana31.xlsx,hiragana32.xlsx,,,,,,,,,,,,,,,,,c,0.913,2,0,92,2,1,91,l23.jpg,l24.jpg,C,D,,,,,,,,,,,,,,,,,
,,,,,,,,,,,,,,,,0104,2019-06-11_16h22.58.478,Probabilistic Learning,3.1.0,60,,,,,,,,1,0,3,2,1,2,hiragana3.xlsx,hiragana31.xlsx,hiragana32.xlsx,,,,,,,,,,,,,,,,,c,0.796,2,0,92,35,1,91,l22.jpg,l26.jpg,B,F,,m,,,,,,,,,,,,,,,
,,,,,,,,,,,,,,,,0104,2019-06-11_16h22.58.478,Probabilistic Learning,3.1.0,60,,,,,,,,1,0,3,2,1,2,hiragana3.xlsx,hiragana31.xlsx,hiragana32.xlsx,,,,,,,,,,,,,,,,,c,0.764,2,0,92,45,1,91,l26.jpg,l24.jpg,f,d,,,,,,,,,,,,,,,,,
,,,,,,,,,,,,,,,,0104,2019-06-11_16h22.58.478,Probabilistic Learning,3.1.0,60,,,,,,,,1,0,3,2,1,2,hiragana3.xlsx,hiragana31.xlsx,hiragana32.xlsx,,,,,,,,,,,,,,,,,m,0.63,2,0,92,41,1,91,l26.jpg,l23.jpg,f,c,,,,,,,,,,,,,,,,,
,,,,,,,,,,,,,,,,0104,2019-06-11_16h22.58.478,Probabilistic Learning,3.1.0,60,,,,,,,,1,0,3,2,1,2,hiragana3.xlsx,hiragana31.xlsx,hiragana32.xlsx,,,,,,,,,,,,,,,,,m,0.582,2,0,92,17,1,91,l25.jpg,l21.jpg,E,A,m,,,,,,,,,,,,,,,,
,,,,,,,,,,,,,,,,0104,2019-06-11_16h22.58.478,Probabilistic Learning,3.1.0,60,,,,,,,,1,0,3,2,1,2,hiragana3.xlsx,hiragana31.xlsx,hiragana32.xlsx,,,,,,,,,,,,,,,,,c,0.797,2,0,92,14,1,91,l21.jpg,l25.jpg,A,E,c,,,,,,,,,,,,,,,,
,,,,,,,,,,,,,,,,0104,2019-06-11_16h22.58.478,Probabilistic Learning,3.1.0,60,,,,,,,,1,0,3,2,1,2,hiragana3.xlsx,hiragana31.xlsx,hiragana32.xlsx,,,,,,,,,,,,,,,,,c,0.662,2,0,92,11,1,91,l21.jpg,l24.jpg,A,D,c,,,,,,,,,,,,,,,,
,,,,,,,,,,,,,,,,0104,2019-06-11_16h22.58.478,Probabilistic Learning,3.1.0,60,,,,,,,,1,0,3,2,1,2,hiragana3.xlsx,hiragana31.xlsx,hiragana32.xlsx,,,,,,,,,,,,,,,,,c,0.579,2,0,92,7,1,91,l21.jpg,l23.jpg,A,C,c,,,,,,,,,,,,,,,,
,,,,,,,,,,,,,,,,0104,2019-06-11_16h22.58.478,Probabilistic Learning,3.1.0,60,,,,,,,,1,0,3,2,1,2,hiragana3.xlsx,hiragana31.xlsx,hiragana32.xlsx,,,,,,,,,,,,,,,,,c,0.647,2,0,92,18,1,91,l21.jpg,l26.jpg,A,F,c,,,,,,,,,,,,,,,,
,,,,,,,,,,,,,,,,0104,2019-06-11_16h22.58.478,Probabilistic Learning,3.1.0,60,,,,,,,,1,0,3,2,1,2,hiragana3.xlsx,hiragana31.xlsx,hiragana32.xlsx,,,,,,,,,,,,,,,,,m,0.612,2,0,92,1,1,91,l22.jpg,l21.jpg,B,A,,,,,,,,,,,,,,,,,
,,,,,,,,,,,,,,,,0104,2019-06-11_16h22.58.478,Probabilistic Learning,3.1.0,60,,,,,,,,1,0,3,2,1,2,hiragana3.xlsx,hiragana31.xlsx,hiragana32.xlsx,,,,,,,,,,,,,,,,,c,0.563,2,0,92,38,1,91,l23.jpg,l25.jpg,C,E,,,,,,,,,,,,,,,,,
,,,,,,,,,,,,,,,,0104,2019-06-11_16h22.58.478,Probabilistic Learning,3.1.0,60,,,,,,,,1,0,3,2,1,2,hiragana3.xlsx,hiragana31.xlsx,hiragana32.xlsx,,,,,,,,,,,,,,,,,m,0.729,2,0,92,13,1,91,l24.jpg,l21.jpg,D,A,m,,,,,,,,,,,,,,,,
,,,,,,,,,,,,,,,,0104,2019-06-11_16h22.58.478,Probabilistic Learning,3.1.0,60,,,,,,,,1,0,3,2,1,2,hiragana3.xlsx,hiragana31.xlsx,hiragana32.xlsx,,,,,,,,,,,,,,,,,c,0.63,2,0,92,26,1,91,l22.jpg,l24.jpg,B,D,,m,,,,,,,,,,,,,,,
,,,,,,,,,,,,,,,,0104,2019-06-11_16h22.58.478,Probabilistic Learning,3.1.0,60,,,,,,,,1,0,3,2,1,2,hiragana3.xlsx,hiragana31.xlsx,hiragana32.xlsx,,,,,,,,,,,,,,,,,m,0.644,2,0,92,32,1,91,l25.jpg,l22.jpg,E,B,,c,,,,,,,,,,,,,,,
,,,,,,,,,,,,,,,,0104,2019-06-11_16h22.58.478,Probabilistic Learning,3.1.0,60,,,,,,,,1,0,3,2,1,2,hiragana3.xlsx,hiragana31.xlsx,hiragana32.xlsx,,,,,,,,,,,,,,,,,m,0.796,2,0,92,3,1,91,l24.jpg,l23.jpg,D,C,,,,,,,,,,,,,,,,,
,,,,,,,,,,,,,,,,0104,2019-06-11_16h22.58.478,Probabilistic Learning,3.1.0,60,,,,,,,,1,0,3,2,1,2,hiragana3.xlsx,hiragana31.xlsx,hiragana32.xlsx,,,,,,,,,,,,,,,,,m,0.645,2,0,92,8,1,91,l23.jpg,l21.jpg,C,A,m,,,,,,,,,,,,,,,,
,,,,,,,,,,,,,,,,0104,2019-06-11_16h22.58.478,Probabilistic Learning,3.1.0,60,,,,,,,,1,0,3,2,1,2,hiragana3.xlsx,hiragana31.xlsx,hiragana32.xlsx,,,,,,,,,,,,,,,,,c,0.597,2,0,92,19,1,91,l21.jpg,l26.jpg,A,F,c,,,,,,,,,,,,,,,,
,,,,,,,,,,,,,,,,0104,2019-06-11_16h22.58.478,Probabilistic Learning,3.1.0,60,,,,,,,,1,0,3,2,1,2,hiragana3.xlsx,hiragana31.xlsx,hiragana32.xlsx,,,,,,,,,,,,,,,,,m,0.713,2,0,92,37,1,91,l26.jpg,l22.jpg,F,B,,c,,,,,,,,,,,,,,,
,,,,,,,,,,,,,,,,0104,2019-06-11_16h22.58.478,Probabilistic Learning,3.1.0,60,,,,,,,,1,0,3,2,1,2,hiragana3.xlsx,hiragana31.xlsx,hiragana32.xlsx,,,,,,,,,,,,,,,,,m,0.763,2,0,92,42,1,91,l24.jpg,l25.jpg,d,e,,,,,,,,,,,,,,,,,
,,,,,,,,,,,,,,,,0104,2019-06-11_16h22.58.478,Probabilistic Learning,3.1.0,60,,,,,,,,1,0,3,2,1,2,hiragana3.xlsx,hiragana31.xlsx,hiragana32.xlsx,,,,,,,,,,,,,,,,,m,0.612,2,0,92,28,1,91,l24.jpg,l22.jpg,D,B,,c,,,,,,,,,,,,,,,
,,,,,,,,,,,,,,,,0104,2019-06-11_16h22.58.478,Probabilistic Learning,3.1.0,60,,,,,,,,1,0,3,2,1,2,hiragana3.xlsx,hiragana31.xlsx,hiragana32.xlsx,,,,,,,,,,,,,,,,,m,0.697,2,0,92,16,1,91,l25.jpg,l21.jpg,E,A,m,,,,,,,,,,,,,,,,
,,,,,,,,,,,,,,,,0104,2019-06-11_16h22.58.478,Probabilistic Learning,3.1.0,60,,,,,,,,1,0,3,2,1,2,hiragana3.xlsx,hiragana31.xlsx,hiragana32.xlsx,,,,,,,,,,,,,,,,,m,0.796,2,0,92,22,1,91,l22.jpg,l23.jpg,B,C,,m,,,,,,,,,,,,,,,
,,,,,,,,,,,,,,,,0104,2019-06-11_16h22.58.478,Probabilistic Learning,3.1.0,60,,,,,,,,1,0,3,2,1,2,hiragana3.xlsx,hiragana31.xlsx,hiragana32.xlsx,,,,,,,,,,,,,,,,,m,0.614,2,0,92,21,1,91,l26.jpg,l21.jpg,F,A,m,,,,,,,,,,,,,,,,
,,,,,,,,,,,,,,,,0104,2019-06-11_16h22.58.478,Probabilistic Learning,3.1.0,60,,,,,,,,1,0,3,2,1,2,hiragana3.xlsx,hiragana31.xlsx,hiragana32.xlsx,,,,,,,,,,,,,,,,,m,1.096,2,0,92,31,1,91,l22.jpg,l25.jpg,B,E,,m,,,,,,,,,,,,,,,
,,,,,,,,,,,,,,,,0104,2019-06-11_16h22.58.478,Probabilistic Learning,3.1.0,60,,,,,,,,1,0,3,2,1,2,hiragana3.xlsx,hiragana31.xlsx,hiragana32.xlsx,,,,,,,,,,,,,,,,,m,1.163,2,0,92,30,1,91,l22.jpg,l25.jpg,B,E,,m,,,,,,,,,,,,,,,
,,,,,,,,,,,,,,,,0104,2019-06-11_16h22.58.478,Probabilistic Learning,3.1.0,60,,,,,,,,1,0,3,2,1,2,hiragana3.xlsx,hiragana31.xlsx,hiragana32.xlsx,,,,,,,,,,,,,,,,,c,0.879,2,0,92,27,1,91,l22.jpg,l24.jpg,B,D,,m,,,,,,,,,,,,,,,
,,,,,,,,,,,,,,,,0104,2019-06-11_16h22.58.478,Probabilistic Learning,3.1.0,60,,,,,,,,1,0,3,2,1,2,hiragana3.xlsx,hiragana31.xlsx,hiragana32.xlsx,,,,,,,,,,,,,,,,,m,1.263,2,0,92,9,1,91,l23.jpg,l21.jpg,C,A,m,,,,,,,,,,,,,,,,
,,,,,,,,,,,,,,,,0104,2019-06-11_16h22.58.478,Probabilistic Learning,3.1.0,60,,,,,,,,1,0,3,2,1,2,hiragana3.xlsx,hiragana31.xlsx,hiragana32.xlsx,,,,,,,,,,,,,,,,,c,0.764,2,0,92,10,1,91,l21.jpg,l24.jpg,A,D,c,,,,,,,,,,,,,,,,
,,,,,,,,,,,,,,,,0104,2019-06-11_16h22.58.478,Probabilistic Learning,3.1.0,60,,,,,,,,1,0,3,2,1,2,hiragana3.xlsx,hiragana31.xlsx,hiragana32.xlsx,,,,,,,,,,,,,,,,,c,0.614,2,0,92,25,1,91,l23.jpg,l22.jpg,C,B,,c,,,,,,,,,,,,,,,
,,,,,,,,,,,,,,,,0104,2019-06-11_16h22.58.478,Probabilistic Learning,3.1.0,60,,,,,,,,1,0,3,2,1,2,hiragana3.xlsx,hiragana31.xlsx,hiragana32.xlsx,,,,,,,,,,,,,,,,,m,0.745,2,0,92,29,1,91,l24.jpg,l22.jpg,D,B,,c,,,,,,,,,,,,,,,
,,,,,,,,,,,,,,,,0104,2019-06-11_16h22.58.478,Probabilistic Learning,3.1.0,60,,,,,,,,1,0,3,2,1,2,hiragana3.xlsx,hiragana31.xlsx,hiragana32.xlsx,,,,,,,,,,,,,,,,,c,0.679,2,0,92,4,1,91,l25.jpg,l26.jpg,E,F,,,,,,,,,,,,,,,,,
,,,,,,,,,,,,,,,,0104,2019-06-11_16h22.58.478,Probabilistic Learning,3.1.0,60,,,,,,,,1,0,3,2,1,2,hiragana3.xlsx,hiragana31.xlsx,hiragana32.xlsx,,,,,,,,,,,,,,,,,m,1.08,2,0,92,20,1,91,l26.jpg,l21.jpg,F,A,m,,,,,,,,,,,,,,,,
,,,,,,,,,,,,,,,,0104,2019-06-11_16h22.58.478,Probabilistic Learning,3.1.0,60,,,,,,,,1,0,3,2,1,2,hiragana3.xlsx,hiragana31.xlsx,hiragana32.xlsx,,,,,,,,,,,,,,,,,m,0.645,2,0,92,40,1,91,l23.jpg,l26.jpg,c,f,,,,,,,,,,,,,,,,,
,,,,,,,,,,,,,,,,0104,2019-06-11_16h22.58.478,Probabilistic Learning,3.1.0,60,,,,,,,,1,0,3,2,1,2,hiragana3.xlsx,hiragana31.xlsx,hiragana32.xlsx,,,,,,,,,,,,,,,,,m,0.83,2,0,92,33,1,91,l25.jpg,l22.jpg,E,B,,c,,,,,,,,,,,,,,,
,,,,,,,,,,,,,,,,0104,2019-06-11_16h22.58.478,Probabilistic Learning,3.1.0,60,,,,,,,,1,0,3,2,1,2,hiragana3.xlsx,hiragana31.xlsx,hiragana32.xlsx,,,,,,,,,,,,,,,,,c,1.129,2,0,92,43,1,91,l25.jpg,l24.jpg,e,d,,,,,,,,,,,,,,,,,
,,,,,,,,,,,,,,,,0104,2019-06-11_16h22.58.478,Probabilistic Learning,3.1.0,60,,,,,,,,1,0,3,2,1,2,hiragana3.xlsx,hiragana31.xlsx,hiragana32.xlsx,,,,,,,,,,,,,,,,,c,0.629,2,0,92,15,1,91,l21.jpg,l25.jpg,A,E,c,,,,,,,,,,,,,,,,
,,,,,,,,,,,,,,,,0104,2019-06-11_16h22.58.478,Probabilistic Learning,3.1.0,60,,,,,,,,1,0,3,2,1,2,hiragana3.xlsx,hiragana31.xlsx,hiragana32.xlsx,,,,,,,,,,,,,,,,,m,0.662,2,0,92,23,1,91,l22.jpg,l23.jpg,B,C,,m,,,,,,,,,,,,,,,
,,,,,,,,,,,,,,,,0104,2019-06-11_16h22.58.478,Probabilistic Learning,3.1.0,60,,,,,,,,1,0,3,2,1,2,hiragana3.xlsx,hiragana31.xlsx,hiragana32.xlsx,,,,,,,,,,,,,,,,,c,0.612,2,0,92,36,1,91,l26.jpg,l22.jpg,F,B,,c,,,,,,,,,,,,,,,
,,,,,,,,,,,,,,,,0104,2019-06-11_16h22.58.478,Probabilistic Learning,3.1.0,60,,,,,,,,1,0,3,2,1,2,hiragana3.xlsx,hiragana31.xlsx,hiragana32.xlsx,,,,,,,,,,,,,,,,,c,0.662,2,0,92,6,1,91,l21.jpg,l23.jpg,A,C,c,,,,,,,,,,,,,,,,
,,,,,,,,,,,,,,,,0104,2019-06-11_16h22.58.478,Probabilistic Learning,3.1.0,60,,,,,,,,1,0,3,2,1,2,hiragana3.xlsx,hiragana31.xlsx,hiragana32.xlsx,,,,,,,,,,,,,,,,,c,1.18,2,0,92,5,1,91,l26.jpg,l25.jpg,F,E,,,,,,,,,,,,,,,,,
,,,,,,,,,,,,,,,,0104,2019-06-11_16h22.58.478,Probabilistic Learning,3.1.0,60,,,,,,,,1,0,3,2,1,2,hiragana3.xlsx,hiragana31.xlsx,hiragana32.xlsx,,,,,,,,,,,,,,,,,,,,,,,,,,,,,,,m,10.485,1,12.043,1,0,2,0,1,1,Most Probable,Hselect3.jpg,Nselect3.jpg,,
,,,,,,,,,,,,,,,,0104,2019-06-11_16h22.58.478,Probabilistic Learning,3.1.0,60,,,,,,,,1,0,3,2,1,2,hiragana3.xlsx,hiragana31.xlsx,hiragana32.xlsx,,,,,,,,,,,,,,,,,,,,,,,,,,,,,,,,,4,3.558,1,0,2,1,1,1,Least Probable,Hselect3.jpg,Nselect3.jpg,,
,,,,,,,,,,,,,,,,0104,2019-06-11_16h22.58.478,Probabilistic Learning,3.1.0,60,,,,,,,,1,0,3,2,1,2,hiragana3.xlsx,hiragana31.xlsx,hiragana32.xlsx,,,,,,,,,,,,,,,,,,,,,,,,,,,,,,,,,,,,,,,,,,,,space,2.659
,,,,,,,,,,,,,,,,0104,2019-06-11_16h22.58.478,Probabilistic Learning,3.1.0,60,,,c,12.759,m,0,0.962,1,0,3,1,1,2,hiragana2.xlsx,hiragana21.xlsx,hiragana22.xlsx,6,0,180,12,1,179,l13.jpg,l14.jpg,c,,c,,,,,,,,,,,,,,,,,,,,,,,,,,,,,,,,,,
,,,,,,,,,,,,,,,,0104,2019-06-11_16h22.58.478,Probabilistic Learning,3.1.0,60,,,,,c,1,0.745,1,0,3,1,1,2,hiragana2.xlsx,hiragana21.xlsx,hiragana22.xlsx,6,0,180,18,1,179,l14.jpg,l13.jpg,c,,m,,,,,,,,,,,,,,,,,,,,,,,,,,,,,,,,,,
,,,,,,,,,,,,,,,,0104,2019-06-11_16h22.58.478,Probabilistic Learning,3.1.0,60,,,,,c,0,0.697,1,0,3,1,1,2,hiragana2.xlsx,hiragana21.xlsx,hiragana22.xlsx,6,0,180,16,1,179,l14.jpg,l13.jpg,m,,m,,,,,,,,,,,,,,,,,,,,,,,,,,,,,,,,,,
,,,,,,,,,,,,,,,,0104,2019-06-11_16h22.58.478,Probabilistic Learning,3.1.0,60,,,,,c,0,1.228,1,0,3,1,1,2,hiragana2.xlsx,hiragana21.xlsx,hiragana22.xlsx,6,0,180,23,1,179,l16.jpg,l15.jpg,m,,,m,,,,,,,,,,,,,,,,,,,,,,,,,,,,,,,,,
,,,,,,,,,,,,,,,,0104,2019-06-11_16h22.58.478,Probabilistic Learning,3.1.0,60,,,,,c,1,0.845,1,0,3,1,1,2,hiragana2.xlsx,hiragana21.xlsx,hiragana22.xlsx,6,0,180,22,1,179,l15.jpg,l16.jpg,c,,,c,,,,,,,,,,,,,,,,,,,,,,,,,,,,,,,,,
,,,,,,,,,,,,,,,,0104,2019-06-11_16h22.58.478,Probabilistic Learning,3.1.0,60,,,,,m,1,0.68,1,0,3,1,1,2,hiragana2.xlsx,hiragana21.xlsx,hiragana22.xlsx,6,0,180,25,1,179,l16.jpg,l15.jpg,m,,,m,,,,,,,,,,,,,,,,,,,,,,,,,,,,,,,,,
,,,,,,,,,,,,,,,,0104,2019-06-11_16h22.58.478,Probabilistic Learning,3.1.0,60,,,,,c,1,0.613,1,0,3,1,1,2,hiragana2.xlsx,hiragana21.xlsx,hiragana22.xlsx,6,0,180,1,1,179,l11.jpg,l12.jpg,c,c,,,,,,,,,,,,,,,,,,,,,,,,,,,,,,,,,,,
,,,,,,,,,,,,,,,,0104,2019-06-11_16h22.58.478,Probabilistic Learning,3.1.0,60,,,,,m,1,1.229,1,0,3,1,1,2,hiragana2.xlsx,hiragana21.xlsx,hiragana22.xlsx,6,0,180,15,1,179,l14.jpg,l13.jpg,m,,m,,,,,,,,,,,,,,,,,,,,,,,,,,,,,,,,,,
,,,,,,,,,,,,,,,,0104,2019-06-11_16h22.58.478,Probabilistic Learning,3.1.0,60,,,,,c,1,0.729,1,0,3,1,1,2,hiragana2.xlsx,hiragana21.xlsx,hiragana22.xlsx,6,0,180,3,1,179,l11.jpg,l12.jpg,c,c,,,,,,,,,,,,,,,,,,,,,,,,,,,,,,,,,,,
,,,,,,,,,,,,,,,,0104,2019-06-11_16h22.58.478,Probabilistic Learning,3.1.0,60,,,,,m,0,0.613,1,0,3,1,1,2,hiragana2.xlsx,hiragana21.xlsx,hiragana22.xlsx,6,0,180,20,1,179,l15.jpg,l16.jpg,c,,,c,,,,,,,,,,,,,,,,,,,,,,,,,,,,,,,,,
,,,,,,,,,,,,,,,,0104,2019-06-11_16h22.58.478,Probabilistic Learning,3.1.0,60,,,,,c,1,0.98,1,0,3,1,1,2,hiragana2.xlsx,hiragana21.xlsx,hiragana22.xlsx,6,0,180,11,1,179,l13.jpg,l14.jpg,c,,c,,,,,,,,,,,,,,,,,,,,,,,,,,,,,,,,,,
,,,,,,,,,,,,,,,,0104,2019-06-11_16h22.58.478,Probabilistic Learning,3.1.0,60,,,,,m,1,1.047,1,0,3,1,1,2,hiragana2.xlsx,hiragana21.xlsx,hiragana22.xlsx,6,0,180,8,1,179,l11.jpg,l12.jpg,m,c,,,,,,,,,,,,,,,,,,,,,,,,,,,,,,,,,,,
,,,,,,,,,,,,,,,,0104,2019-06-11_16h22.58.478,Probabilistic Learning,3.1.0,60,,,,,c,0,0.646,1,0,3,1,1,2,hiragana2.xlsx,hiragana21.xlsx,hiragana22.xlsx,6,0,180,5,1,179,l12.jpg,l11.jpg,m,m,,,,,,,,,,,,,,,,,,,,,,,,,,,,,,,,,,,
,,,,,,,,,,,,,,,,0104,2019-06-11_16h22.58.478,Probabilistic Learning,3.1.0,60,,,,,c,1,1.028,1,0,3,1,1,2,hiragana2.xlsx,hiragana21.xlsx,hiragana22.xlsx,6,0,180,0,1,179,l11.jpg,l12.jpg,c,c,,,,,,,,,,,,,,,,,,,,,,,,,,,,,,,,,,,
,,,,,,,,,,,,,,,,0104,2019-06-11_16h22.58.478,Probabilistic Learning,3.1.0,60,,,,,c,0,0.996,1,0,3,1,1,2,hiragana2.xlsx,hiragana21.xlsx,hiragana22.xlsx,6,0,180,14,1,179,l14.jpg,l13.jpg,m,,m,,,,,,,,,,,,,,,,,,,,,,,,,,,,,,,,,,
,,,,,,,,,,,,,,,,0104,2019-06-11_16h22.58.478,Probabilistic Learning,3.1.0,60,,,,,c,1,0.845,1,0,3,1,1,2,hiragana2.xlsx,hiragana21.xlsx,hiragana22.xlsx,6,0,180,13,1,179,l13.jpg,l14.jpg,c,,c,,,,,,,,,,,,,,,,,,,,,,,,,,,,,,,,,,
,,,,,,,,,,,,,,,,0104,2019-06-11_16h22.58.478,Probabilistic Learning,3.1.0,60,,,,,m,0,0.747,1,0,3,1,1,2,hiragana2.xlsx,hiragana21.xlsx,hiragana22.xlsx,6,0,180,9,1,179,l12.jpg,l11.jpg,c,m,,,,,,,,,,,,,,,,,,,,,,,,,,,,,,,,,,,
,,,,,,,,,,,,,,,,0104,2019-06-11_16h22.58.478,Probabilistic Learning,3.1.0,60,,,,,m,1,0.831,1,0,3,1,1,2,hiragana2.xlsx,hiragana21.xlsx,hiragana22.xlsx,6,0,180,24,1,179,l16.jpg,l15.jpg,m,,,m,,,,,,,,,,,,,,,,,,,,,,,,,,,,,,,,,
,,,,,,,,,,,,,,,,0104,2019-06-11_16h22.58.478,Probabilistic Learning,3.1.0,60,,,,,m,1,0.962,1,0,3,1,1,2,hiragana2.xlsx,hiragana21.xlsx,hiragana22.xlsx,6,0,180,6,1,179,l12.jpg,l11.jpg,m,m,,,,,,,,,,,,,,,,,,,,,,,,,,,,,,,,,,,
,,,,,,,,,,,,,,,,0104,2019-06-11_16h22.58.478,Probabilistic Learning,3.1.0,60,,,,,c,1,1.128,1,0,3,1,1,2,hiragana2.xlsx,hiragana21.xlsx,hiragana22.xlsx,6,0,180,10,1,179,l13.jpg,l14.jpg,c,,c,,,,,,,,,,,,,,,,,,,,,,,,,,,,,,,,,,
,,,,,,,,,,,,,,,,0104,2019-06-11_16h22.58.478,Probabilistic Learning,3.1.0,60,,,,,m,0,0.813,1,0,3,1,1,2,hiragana2.xlsx,hiragana21.xlsx,hiragana22.xlsx,6,0,180,29,1,179,l16.jpg,l15.jpg,c,,,m,,,,,,,,,,,,,,,,,,,,,,,,,,,,,,,,,
,,,,,,,,,,,,,,,,0104,2019-06-11_16h22.58.478,Probabilistic Learning,3.1.0,60,,,,,m,0,0.963,1,0,3,1,1,2,hiragana2.xlsx,hiragana21.xlsx,hiragana22.xlsx,6,0,180,17,1,179,l14.jpg,l13.jpg,c,,m,,,,,,,,,,,,,,,,,,,,,,,,,,,,,,,,,,
,,,,,,,,,,,,,,,,0104,2019-06-11_16h22.58.478,Probabilistic Learning,3.1.0,60,,,,,m,1,0.68,1,0,3,1,1,2,hiragana2.xlsx,hiragana21.xlsx,hiragana22.xlsx,6,0,180,4,1,179,l12.jpg,l11.jpg,m,m,,,,,,,,,,,,,,,,,,,,,,,,,,,,,,,,,,,
,,,,,,,,,,,,,,,,0104,2019-06-11_16h22.58.478,Probabilistic Learning,3.1.0,60,,,,,m,1,0.646,1,0,3,1,1,2,hiragana2.xlsx,hiragana21.xlsx,hiragana22.xlsx,6,0,180,27,1,179,l15.jpg,l16.jpg,m,,,c,,,,,,,,,,,,,,,,,,,,,,,,,,,,,,,,,
,,,,,,,,,,,,,,,,0104,2019-06-11_16h22.58.478,Probabilistic Learning,3.1.0,60,,,,,m,1,0.68,1,0,3,1,1,2,hiragana2.xlsx,hiragana21.xlsx,hiragana22.xlsx,6,0,180,7,1,179,l12.jpg,l11.jpg,m,m,,,,,,,,,,,,,,,,,,,,,,,,,,,,,,,,,,,
,,,,,,,,,,,,,,,,0104,2019-06-11_16h22.58.478,Probabilistic Learning,3.1.0,60,,,,,c,0,1.129,1,0,3,1,1,2,hiragana2.xlsx,hiragana21.xlsx,hiragana22.xlsx,6,0,180,26,1,179,l15.jpg,l16.jpg,m,,,c,,,,,,,,,,,,,,,,,,,,,,,,,,,,,,,,,
,,,,,,,,,,,,,,,,0104,2019-06-11_16h22.58.478,Probabilistic Learning,3.1.0,60,,,,,c,0,0.995,1,0,3,1,1,2,hiragana2.xlsx,hiragana21.xlsx,hiragana22.xlsx,6,0,180,19,1,179,l13.jpg,l14.jpg,m,,c,,,,,,,,,,,,,,,,,,,,,,,,,,,,,,,,,,
,,,,,,,,,,,,,,,,0104,2019-06-11_16h22.58.478,Probabilistic Learning,3.1.0,60,,,,,m,0,0.829,1,0,3,1,1,2,hiragana2.xlsx,hiragana21.xlsx,hiragana22.xlsx,6,0,180,21,1,179,l15.jpg,l16.jpg,c,,,c,,,,,,,,,,,,,,,,,,,,,,,,,,,,,,,,,
,,,,,,,,,,,,,,,,0104,2019-06-11_16h22.58.478,Probabilistic Learning,3.1.0,60,,,,,m,0,0.513,1,0,3,1,1,2,hiragana2.xlsx,hiragana21.xlsx,hiragana22.xlsx,6,0,180,28,1,179,l16.jpg,l15.jpg,c,,,m,,,,,,,,,,,,,,,,,,,,,,,,,,,,,,,,,
,,,,,,,,,,,,,,,,0104,2019-06-11_16h22.58.478,Probabilistic Learning,3.1.0,60,,,,,c,1,0.761,1,0,3,1,1,2,hiragana2.xlsx,hiragana21.xlsx,hiragana22.xlsx,6,0,180,2,1,179,l11.jpg,l12.jpg,c,c,,,,,,,,,,,,,,,,,,,,,,,,,,,,,,,,,,,
,,,,,,,,,,,,,,,,0104,2019-06-11_16h22.58.478,Probabilistic Learning,3.1.0,60,,,,,m,1,0.712,1,0,3,1,1,2,hiragana2.xlsx,hiragana21.xlsx,hiragana22.xlsx,6,0,180,4,1,179,l12.jpg,l11.jpg,m,m,,,,,,,,,,,,,,,,,,,,,,,,,,,,,,,,,,,
,,,,,,,,,,,,,,,,0104,2019-06-11_16h22.58.478,Probabilistic Learning,3.1.0,60,,,,,m,1,0.595,1,0,3,1,1,2,hiragana2.xlsx,hiragana21.xlsx,hiragana22.xlsx,6,0,180,5,1,179,l12.jpg,l11.jpg,m,m,,,,,,,,,,,,,,,,,,,,,,,,,,,,,,,,,,,
,,,,,,,,,,,,,,,,0104,2019-06-11_16h22.58.478,Probabilistic Learning,3.1.0,60,,,,,c,0,0.98,1,0,3,1,1,2,hiragana2.xlsx,hiragana21.xlsx,hiragana22.xlsx,6,0,180,16,1,179,l14.jpg,l13.jpg,m,,m,,,,,,,,,,,,,,,,,,,,,,,,,,,,,,,,,,
,,,,,,,,,,,,,,,,0104,2019-06-11_16h22.58.478,Probabilistic Learning,3.1.0,60,,,,,c,1,1.229,1,0,3,1,1,2,hiragana2.xlsx,hiragana21.xlsx,hiragana22.xlsx,6,0,180,10,1,179,l13.jpg,l14.jpg,c,,c,,,,,,,,,,,,,,,,,,,,,,,,,,,,,,,,,,
,,,,,,,,,,,,,,,,0104,2019-06-11_16h22.58.478,Probabilistic Learning,3.1.0,60,,,,,m,0,1.046,1,0,3,1,1,2,hiragana2.xlsx,hiragana21.xlsx,hiragana22.xlsx,6,0,180,21,1,179,l15.jpg,l16.jpg,c,,,c,,,,,,,,,,,,,,,,,,,,,,,,,,,,,,,,,
,,,,,,,,,,,,,,,,0104,2019-06-11_16h22.58.478,Probabilistic Learning,3.1.0,60,,,,,m,0,0.946,1,0,3,1,1,2,hiragana2.xlsx,hiragana21.xlsx,hiragana22.xlsx,6,0,180,28,1,179,l16.jpg,l15.jpg,c,,,m,,,,,,,,,,,,,,,,,,,,,,,,,,,,,,,,,
,,,,,,,,,,,,,,,,0104,2019-06-11_16h22.58.478,Probabilistic Learning,3.1.0,60,,,,,c,1,0.912,1,0,3,1,1,2,hiragana2.xlsx,hiragana21.xlsx,hiragana22.xlsx,6,0,180,1,1,179,l11.jpg,l12.jpg,c,c,,,,,,,,,,,,,,,,,,,,,,,,,,,,,,,,,,,
,,,,,,,,,,,,,,,,0104,2019-06-11_16h22.58.478,Probabilistic Learning,3.1.0,60,,,,,c,0,1.214,1,0,3,1,1,2,hiragana2.xlsx,hiragana21.xlsx,hiragana22.xlsx,6,0,180,23,1,179,l16.jpg,l15.jpg,m,,,m,,,,,,,,,,,,,,,,,,,,,,,,,,,,,,,,,
,,,,,,,,,,,,,,,,0104,2019-06-11_16h22.58.478,Probabilistic Learning,3.1.0,60,,,,,c,0,0.646,1,0,3,1,1,2,hiragana2.xlsx,hiragana21.xlsx,hiragana22.xlsx,6,0,180,27,1,179,l15.jpg,l16.jpg,m,,,c,,,,,,,,,,,,,,,,,,,,,,,,,,,,,,,,,
,,,,,,,,,,,,,,,,0104,2019-06-11_16h22.58.478,Probabilistic Learning,3.1.0,60,,,,,m,0,0.945,1,0,3,1,1,2,hiragana2.xlsx,hiragana21.xlsx,hiragana22.xlsx,6,0,180,22,1,179,l15.jpg,l16.jpg,c,,,c,,,,,,,,,,,,,,,,,,,,,,,,,,,,,,,,,
,,,,,,,,,,,,,,,,0104,2019-06-11_16h22.58.478,Probabilistic Learning,3.1.0,60,,,,,c,1,1.013,1,0,3,1,1,2,hiragana2.xlsx,hiragana21.xlsx,hiragana22.xlsx,6,0,180,17,1,179,l14.jpg,l13.jpg,c,,m,,,,,,,,,,,,,,,,,,,,,,,,,,,,,,,,,,
,,,,,,,,,,,,,,,,0104,2019-06-11_16h22.58.478,Probabilistic Learning,3.1.0,60,,,,,m,0,0.563,1,0,3,1,1,2,hiragana2.xlsx,hiragana21.xlsx,hiragana22.xlsx,6,0,180,13,1,179,l13.jpg,l14.jpg,c,,c,,,,,,,,,,,,,,,,,,,,,,,,,,,,,,,,,,
,,,,,,,,,,,,,,,,0104,2019-06-11_16h22.58.478,Probabilistic Learning,3.1.0,60,,,,,m,0,0.546,1,0,3,1,1,2,hiragana2.xlsx,hiragana21.xlsx,hiragana22.xlsx,6,0,180,12,1,179,l13.jpg,l14.jpg,c,,c,,,,,,,,,,,,,,,,,,,,,,,,,,,,,,,,,,
,,,,,,,,,,,,,,,,0104,2019-06-11_16h22.58.478,Probabilistic Learning,3.1.0,60,,,,,m,1,0.812,1,0,3,1,1,2,hiragana2.xlsx,hiragana21.xlsx,hiragana22.xlsx,6,0,180,14,1,179,l14.jpg,l13.jpg,m,,m,,,,,,,,,,,,,,,,,,,,,,,,,,,,,,,,,,
,,,,,,,,,,,,,,,,0104,2019-06-11_16h22.58.478,Probabilistic Learning,3.1.0,60,,,,,c,0,0.797,1,0,3,1,1,2,hiragana2.xlsx,hiragana21.xlsx,hiragana22.xlsx,6,0,180,25,1,179,l16.jpg,l15.jpg,m,,,m,,,,,,,,,,,,,,,,,,,,,,,,,,,,,,,,,
,,,,,,,,,,,,,,,,0104,2019-06-11_16h22.58.478,Probabilistic Learning,3.1.0,60,,,,,m,1,0.464,1,0,3,1,1,2,hiragana2.xlsx,hiragana21.xlsx,hiragana22.xlsx,6,0,180,24,1,179,l16.jpg,l15.jpg,m,,,m,,,,,,,,,,,,,,,,,,,,,,,,,,,,,,,,,
,,,,,,,,,,,,,,,,0104,2019-06-11_16h22.58.478,Probabilistic Learning,3.1.0,60,,,,,c,0,0.829,1,0,3,1,1,2,hiragana2.xlsx,hiragana21.xlsx,hiragana22.xlsx,6,0,180,7,1,179,l12.jpg,l11.jpg,m,m,,,,,,,,,,,,,,,,,,,,,,,,,,,,,,,,,,,
,,,,,,,,,,,,,,,,0104,2019-06-11_16h22.58.478,Probabilistic Learning,3.1.0,60,,,,,c,1,1.096,1,0,3,1,1,2,hiragana2.xlsx,hiragana21.xlsx,hiragana22.xlsx,6,0,180,11,1,179,l13.jpg,l14.jpg,c,,c,,,,,,,,,,,,,,,,,,,,,,,,,,,,,,,,,,
,,,,,,,,,,,,,,,,0104,2019-06-11_16h22.58.478,Probabilistic Learning,3.1.0,60,,,,,c,0,0.946,1,0,3,1,1,2,hiragana2.xlsx,hiragana21.xlsx,hiragana22.xlsx,6,0,180,19,1,179,l13.jpg,l14.jpg,m,,c,,,,,,,,,,,,,,,,,,,,,,,,,,,,,,,,,,
,,,,,,,,,,,,,,,,0104,2019-06-11_16h22.58.478,Probabilistic Learning,3.1.0,60,,,,,m,1,0.528,1,0,3,1,1,2,hiragana2.xlsx,hiragana21.xlsx,hiragana22.xlsx,6,0,180,15,1,179,l14.jpg,l13.jpg,m,,m,,,,,,,,,,,,,,,,,,,,,,,,,,,,,,,,,,
,,,,,,,,,,,,,,,,0104,2019-06-11_16h22.58.478,Probabilistic Learning,3.1.0,60,,,,,c,1,0.929,1,0,3,1,1,2,hiragana2.xlsx,hiragana21.xlsx,hiragana22.xlsx,6,0,180,0,1,179,l11.jpg,l12.jpg,c,c,,,,,,,,,,,,,,,,,,,,,,,,,,,,,,,,,,,
,,,,,,,,,,,,,,,,0104,2019-06-11_16h22.58.478,Probabilistic Learning,3.1.0,60,,,,,m,1,1.095,1,0,3,1,1,2,hiragana2.xlsx,hiragana21.xlsx,hiragana22.xlsx,6,0,180,26,1,179,l15.jpg,l16.jpg,m,,,c,,,,,,,,,,,,,,,,,,,,,,,,,,,,,,,,,
,,,,,,,,,,,,,,,,0104,2019-06-11_16h22.58.478,Probabilistic Learning,3.1.0,60,,,,,m,0,0.563,1,0,3,1,1,2,hiragana2.xlsx,hiragana21.xlsx,hiragana22.xlsx,6,0,180,20,1,179,l15.jpg,l16.jpg,c,,,c,,,,,,,,,,,,,,,,,,,,,,,,,,,,,,,,,
,,,,,,,,,,,,,,,,0104,2019-06-11_16h22.58.478,Probabilistic Learning,3.1.0,60,,,,,c,1,1.128,1,0,3,1,1,2,hiragana2.xlsx,hiragana21.xlsx,hiragana22.xlsx,6,0,180,3,1,179,l11.jpg,l12.jpg,c,c,,,,,,,,,,,,,,,,,,,,,,,,,,,,,,,,,,,
,,,,,,,,,,,,,,,,0104,2019-06-11_16h22.58.478,Probabilistic Learning,3.1.0,60,,,,,c,0,0.712,1,0,3,1,1,2,hiragana2.xlsx,hiragana21.xlsx,hiragana22.xlsx,6,0,180,8,1,179,l11.jpg,l12.jpg,m,c,,,,,,,,,,,,,,,,,,,,,,,,,,,,,,,,,,,
,,,,,,,,,,,,,,,,0104,2019-06-11_16h22.58.478,Probabilistic Learning,3.1.0,60,,,,,c,1,1.011,1,0,3,1,1,2,hiragana2.xlsx,hiragana21.xlsx,hiragana22.xlsx,6,0,180,18,1,179,l14.jpg,l13.jpg,c,,m,,,,,,,,,,,,,,,,,,,,,,,,,,,,,,,,,,
,,,,,,,,,,,,,,,,0104,2019-06-11_16h22.58.478,Probabilistic Learning,3.1.0,60,,,,,c,1,0.779,1,0,3,1,1,2,hiragana2.xlsx,hiragana21.xlsx,hiragana22.xlsx,6,0,180,2,1,179,l11.jpg,l12.jpg,c,c,,,,,,,,,,,,,,,,,,,,,,,,,,,,,,,,,,,
,,,,,,,,,,,,,,,,0104,2019-06-11_16h22.58.478,Probabilistic Learning,3.1.0,60,,,,,c,1,0.963,1,0,3,1,1,2,hiragana2.xlsx,hiragana21.xlsx,hiragana22.xlsx,6,0,180,29,1,179,l16.jpg,l15.jpg,c,,,m,,,,,,,,,,,,,,,,,,,,,,,,,,,,,,,,,
,,,,,,,,,,,,,,,,0104,2019-06-11_16h22.58.478,Probabilistic Learning,3.1.0,60,,,,,m,0,0.846,1,0,3,1,1,2,hiragana2.xlsx,hiragana21.xlsx,hiragana22.xlsx,6,0,180,9,1,179,l12.jpg,l11.jpg,c,m,,,,,,,,,,,,,,,,,,,,,,,,,,,,,,,,,,,
,,,,,,,,,,,,,,,,0104,2019-06-11_16h22.58.478,Probabilistic Learning,3.1.0,60,,,,,m,1,0.697,1,0,3,1,1,2,hiragana2.xlsx,hiragana21.xlsx,hiragana22.xlsx,6,0,180,6,1,179,l12.jpg,l11.jpg,m,m,,,,,,,,,,,,,,,,,,,,,,,,,,,,,,,,,,,
,,,,,,,,,,,,,,,,0104,2019-06-11_16h22.58.478,Probabilistic Learning,3.1.0,60,,,,,c,0,1.046,1,0,3,1,1,2,hiragana2.xlsx,hiragana21.xlsx,hiragana22.xlsx,6,0,180,14,1,179,l14.jpg,l13.jpg,m,,m,,,,,,,,,,,,,,,,,,,,,,,,,,,,,,,,,,
,,,,,,,,,,,,,,,,0104,2019-06-11_16h22.58.478,Probabilistic Learning,3.1.0,60,,,,,c,0,0.597,1,0,3,1,1,2,hiragana2.xlsx,hiragana21.xlsx,hiragana22.xlsx,6,0,180,19,1,179,l13.jpg,l14.jpg,m,,c,,,,,,,,,,,,,,,,,,,,,,,,,,,,,,,,,,
,,,,,,,,,,,,,,,,0104,2019-06-11_16h22.58.478,Probabilistic Learning,3.1.0,60,,,,,m,0,1.211,1,0,3,1,1,2,hiragana2.xlsx,hiragana21.xlsx,hiragana22.xlsx,6,0,180,13,1,179,l13.jpg,l14.jpg,c,,c,,,,,,,,,,,,,,,,,,,,,,,,,,,,,,,,,,
,,,,,,,,,,,,,,,,0104,2019-06-11_16h22.58.478,Probabilistic Learning,3.1.0,60,,,,,c,1,0.763,1,0,3,1,1,2,hiragana2.xlsx,hiragana21.xlsx,hiragana22.xlsx,6,0,180,0,1,179,l11.jpg,l12.jpg,c,c,,,,,,,,,,,,,,,,,,,,,,,,,,,,,,,,,,,
,,,,,,,,,,,,,,,,0104,2019-06-11_16h22.58.478,Probabilistic Learning,3.1.0,60,,,,,m,0,1.213,1,0,3,1,1,2,hiragana2.xlsx,hiragana21.xlsx,hiragana22.xlsx,6,0,180,11,1,179,l13.jpg,l14.jpg,c,,c,,,,,,,,,,,,,,,,,,,,,,,,,,,,,,,,,,
,,,,,,,,,,,,,,,,0104,2019-06-11_16h22.58.478,Probabilistic Learning,3.1.0,60,,,,,m,1,0.796,1,0,3,1,1,2,hiragana2.xlsx,hiragana21.xlsx,hiragana22.xlsx,6,0,180,4,1,179,l12.jpg,l11.jpg,m,m,,,,,,,,,,,,,,,,,,,,,,,,,,,,,,,,,,,
,,,,,,,,,,,,,,,,0104,2019-06-11_16h22.58.478,Probabilistic Learning,3.1.0,60,,,,,c,0,0.747,1,0,3,1,1,2,hiragana2.xlsx,hiragana21.xlsx,hiragana22.xlsx,6,0,180,24,1,179,l16.jpg,l15.jpg,m,,,m,,,,,,,,,,,,,,,,,,,,,,,,,,,,,,,,,
,,,,,,,,,,,,,,,,0104,2019-06-11_16h22.58.478,Probabilistic Learning,3.1.0,60,,,,,m,0,0.83,1,0,3,1,1,2,hiragana2.xlsx,hiragana21.xlsx,hiragana22.xlsx,6,0,180,12,1,179,l13.jpg,l14.jpg,c,,c,,,,,,,,,,,,,,,,,,,,,,,,,,,,,,,,,,
,,,,,,,,,,,,,,,,0104,2019-06-11_16h22.58.478,Probabilistic Learning,3.1.0,60,,,,,m,1,0.961,1,0,3,1,1,2,hiragana2.xlsx,hiragana21.xlsx,hiragana22.xlsx,6,0,180,26,1,179,l15.jpg,l16.jpg,m,,,c,,,,,,,,,,,,,,,,,,,,,,,,,,,,,,,,,
,,,,,,,,,,,,,,,,0104,2019-06-11_16h22.58.478,Probabilistic Learning,3.1.0,60,,,,,m,0,0.747,1,0,3,1,1,2,hiragana2.xlsx,hiragana21.xlsx,hiragana22.xlsx,6,0,180,21,1,179,l15.jpg,l16.jpg,c,,,c,,,,,,,,,,,,,,,,,,,,,,,,,,,,,,,,,
,,,,,,,,,,,,,,,,0104,2019-06-11_16h22.58.478,Probabilistic Learning,3.1.0,60,,,,,m,1,1.029,1,0,3,1,1,2,hiragana2.xlsx,hiragana21.xlsx,hiragana22.xlsx,6,0,180,7,1,179,l12.jpg,l11.jpg,m,m,,,,,,,,,,,,,,,,,,,,,,,,,,,,,,,,,,,
,,,,,,,,,,,,,,,,0104,2019-06-11_16h22.58.478,Probabilistic Learning,3.1.0,60,,,,,c,0,0.796,1,0,3,1,1,2,hiragana2.xlsx,hiragana21.xlsx,hiragana22.xlsx,6,0,180,8,1,179,l11.jpg,l12.jpg,m,c,,,,,,,,,,,,,,,,,,,,,,,,,,,,,,,,,,,
,,,,,,,,,,,,,,,,0104,2019-06-11_16h22.58.478,Probabilistic Learning,3.1.0,60,,,,,c,1,0.697,1,0,3,1,1,2,hiragana2.xlsx,hiragana21.xlsx,hiragana22.xlsx,6,0,180,1,1,179,l11.jpg,l12.jpg,c,c,,,,,,,,,,,,,,,,,,,,,,,,,,,,,,,,,,,
,,,,,,,,,,,,,,,,0104,2019-06-11_16h22.58.478,Probabilistic Learning,3.1.0,60,,,,,c,1,1.197,1,0,3,1,1,2,hiragana2.xlsx,hiragana21.xlsx,hiragana22.xlsx,6,0,180,10,1,179,l13.jpg,l14.jpg,c,,c,,,,,,,,,,,,,,,,,,,,,,,,,,,,,,,,,,
,,,,,,,,,,,,,,,,0104,2019-06-11_16h22.58.478,Probabilistic Learning,3.1.0,60,,,,,c,1,0.761,1,0,3,1,1,2,hiragana2.xlsx,hiragana21.xlsx,hiragana22.xlsx,6,0,180,2,1,179,l11.jpg,l12.jpg,c,c,,,,,,,,,,,,,,,,,,,,,,,,,,,,,,,,,,,
,,,,,,,,,,,,,,,,0104,2019-06-11_16h22.58.478,Probabilistic Learning,3.1.0,60,,,,,c,0,0.745,1,0,3,1,1,2,hiragana2.xlsx,hiragana21.xlsx,hiragana22.xlsx,6,0,180,23,1,179,l16.jpg,l15.jpg,m,,,m,,,,,,,,,,,,,,,,,,,,,,,,,,,,,,,,,
,,,,,,,,,,,,,,,,0104,2019-06-11_16h22.58.478,Probabilistic Learning,3.1.0,60,,,,,m,0,0.88,1,0,3,1,1,2,hiragana2.xlsx,hiragana21.xlsx,hiragana22.xlsx,6,0,180,9,1,179,l12.jpg,l11.jpg,c,m,,,,,,,,,,,,,,,,,,,,,,,,,,,,,,,,,,,
,,,,,,,,,,,,,,,,0104,2019-06-11_16h22.58.478,Probabilistic Learning,3.1.0,60,,,,,m,0,1.297,1,0,3,1,1,2,hiragana2.xlsx,hiragana21.xlsx,hiragana22.xlsx,6,0,180,22,1,179,l15.jpg,l16.jpg,c,,,c,,,,,,,,,,,,,,,,,,,,,,,,,,,,,,,,,
,,,,,,,,,,,,,,,,0104,2019-06-11_16h22.58.478,Probabilistic Learning,3.1.0,60,,,,,c,1,0.597,1,0,3,1,1,2,hiragana2.xlsx,hiragana21.xlsx,hiragana22.xlsx,6,0,180,29,1,179,l16.jpg,l15.jpg,c,,,m,,,,,,,,,,,,,,,,,,,,,,,,,,,,,,,,,
,,,,,,,,,,,,,,,,0104,2019-06-11_16h22.58.478,Probabilistic Learning,3.1.0,60,,,,,m,0,0.729,1,0,3,1,1,2,hiragana2.xlsx,hiragana21.xlsx,hiragana22.xlsx,6,0,180,20,1,179,l15.jpg,l16.jpg,c,,,c,,,,,,,,,,,,,,,,,,,,,,,,,,,,,,,,,
,,,,,,,,,,,,,,,,0104,2019-06-11_16h22.58.478,Probabilistic Learning,3.1.0,60,,,,,m,1,0.928,1,0,3,1,1,2,hiragana2.xlsx,hiragana21.xlsx,hiragana22.xlsx,6,0,180,16,1,179,l14.jpg,l13.jpg,m,,m,,,,,,,,,,,,,,,,,,,,,,,,,,,,,,,,,,
,,,,,,,,,,,,,,,,0104,2019-06-11_16h22.58.478,Probabilistic Learning,3.1.0,60,,,,,c,1,0.897,1,0,3,1,1,2,hiragana2.xlsx,hiragana21.xlsx,hiragana22.xlsx,6,0,180,28,1,179,l16.jpg,l15.jpg,c,,,m,,,,,,,,,,,,,,,,,,,,,,,,,,,,,,,,,
,,,,,,,,,,,,,,,,0104,2019-06-11_16h22.58.478,Probabilistic Learning,3.1.0,60,,,,,c,0,0.597,1,0,3,1,1,2,hiragana2.xlsx,hiragana21.xlsx,hiragana22.xlsx,6,0,180,25,1,179,l16.jpg,l15.jpg,m,,,m,,,,,,,,,,,,,,,,,,,,,,,,,,,,,,,,,
,,,,,,,,,,,,,,,,0104,2019-06-11_16h22.58.478,Probabilistic Learning,3.1.0,60,,,,,m,1,0.729,1,0,3,1,1,2,hiragana2.xlsx,hiragana21.xlsx,hiragana22.xlsx,6,0,180,6,1,179,l12.jpg,l11.jpg,m,m,,,,,,,,,,,,,,,,,,,,,,,,,,,,,,,,,,,
,,,,,,,,,,,,,,,,0104,2019-06-11_16h22.58.478,Probabilistic Learning,3.1.0,60,,,,,m,1,0.979,1,0,3,1,1,2,hiragana2.xlsx,hiragana21.xlsx,hiragana22.xlsx,6,0,180,15,1,179,l14.jpg,l13.jpg,m,,m,,,,,,,,,,,,,,,,,,,,,,,,,,,,,,,,,,
,,,,,,,,,,,,,,,,0104,2019-06-11_16h22.58.478,Probabilistic Learning,3.1.0,60,,,,,m,0,0.662,1,0,3,1,1,2,hiragana2.xlsx,hiragana21.xlsx,hiragana22.xlsx,6,0,180,17,1,179,l14.jpg,l13.jpg,c,,m,,,,,,,,,,,,,,,,,,,,,,,,,,,,,,,,,,
,,,,,,,,,,,,,,,,0104,2019-06-11_16h22.58.478,Probabilistic Learning,3.1.0,60,,,,,m,1,0.695,1,0,3,1,1,2,hiragana2.xlsx,hiragana21.xlsx,hiragana22.xlsx,6,0,180,5,1,179,l12.jpg,l11.jpg,m,m,,,,,,,,,,,,,,,,,,,,,,,,,,,,,,,,,,,
,,,,,,,,,,,,,,,,0104,2019-06-11_16h22.58.478,Probabilistic Learning,3.1.0,60,,,,,m,0,0.996,1,0,3,1,1,2,hiragana2.xlsx,hiragana21.xlsx,hiragana22.xlsx,6,0,180,18,1,179,l14.jpg,l13.jpg,c,,m,,,,,,,,,,,,,,,,,,,,,,,,,,,,,,,,,,
,,,,,,,,,,,,,,,,0104,2019-06-11_16h22.58.478,Probabilistic Learning,3.1.0,60,,,,,m,1,0.712,1,0,3,1,1,2,hiragana2.xlsx,hiragana21.xlsx,hiragana22.xlsx,6,0,180,27,1,179,l15.jpg,l16.jpg,m,,,c,,,,,,,,,,,,,,,,,,,,,,,,,,,,,,,,,
,,,,,,,,,,,,,,,,0104,2019-06-11_16h22.58.478,Probabilistic Learning,3.1.0,60,,,,,c,1,0.596,1,0,3,1,1,2,hiragana2.xlsx,hiragana21.xlsx,hiragana22.xlsx,6,0,180,3,1,179,l11.jpg,l12.jpg,c,c,,,,,,,,,,,,,,,,,,,,,,,,,,,,,,,,,,,
,,,,,,,,,,,,,,,,0104,2019-06-11_16h22.58.478,Probabilistic Learning,3.1.0,60,,,,,m,0,0.663,1,0,3,1,1,2,hiragana2.xlsx,hiragana21.xlsx,hiragana22.xlsx,6,0,180,21,1,179,l15.jpg,l16.jpg,c,,,c,,,,,,,,,,,,,,,,,,,,,,,,,,,,,,,,,
,,,,,,,,,,,,,,,,0104,2019-06-11_16h22.58.478,Probabilistic Learning,3.1.0,60,,,,,c,0,0.68,1,0,3,1,1,2,hiragana2.xlsx,hiragana21.xlsx,hiragana22.xlsx,6,0,180,25,1,179,l16.jpg,l15.jpg,m,,,m,,,,,,,,,,,,,,,,,,,,,,,,,,,,,,,,,
,,,,,,,,,,,,,,,,0104,2019-06-11_16h22.58.478,Probabilistic Learning,3.1.0,60,,,,,m,1,0.996,1,0,3,1,1,2,hiragana2.xlsx,hiragana21.xlsx,hiragana22.xlsx,6,0,180,15,1,179,l14.jpg,l13.jpg,m,,m,,,,,,,,,,,,,,,,,,,,,,,,,,,,,,,,,,
,,,,,,,,,,,,,,,,0104,2019-06-11_16h22.58.478,Probabilistic Learning,3.1.0,60,,,,,c,1,0.663,1,0,3,1,1,2,hiragana2.xlsx,hiragana21.xlsx,hiragana22.xlsx,6,0,180,12,1,179,l13.jpg,l14.jpg,c,,c,,,,,,,,,,,,,,,,,,,,,,,,,,,,,,,,,,
,,,,,,,,,,,,,,,,0104,2019-06-11_16h22.58.478,Probabilistic Learning,3.1.0,60,,,,,m,1,0.747,1,0,3,1,1,2,hiragana2.xlsx,hiragana21.xlsx,hiragana22.xlsx,6,0,180,27,1,179,l15.jpg,l16.jpg,m,,,c,,,,,,,,,,,,,,,,,,,,,,,,,,,,,,,,,
,,,,,,,,,,,,,,,,0104,2019-06-11_16h22.58.478,Probabilistic Learning,3.1.0,60,,,,,m,1,0.662,1,0,3,1,1,2,hiragana2.xlsx,hiragana21.xlsx,hiragana22.xlsx,6,0,180,6,1,179,l12.jpg,l11.jpg,m,m,,,,,,,,,,,,,,,,,,,,,,,,,,,,,,,,,,,
,,,,,,,,,,,,,,,,0104,2019-06-11_16h22.58.478,Probabilistic Learning,3.1.0,60,,,,,m,1,0.696,1,0,3,1,1,2,hiragana2.xlsx,hiragana21.xlsx,hiragana22.xlsx,6,0,180,7,1,179,l12.jpg,l11.jpg,m,m,,,,,,,,,,,,,,,,,,,,,,,,,,,,,,,,,,,
,,,,,,,,,,,,,,,,0104,2019-06-11_16h22.58.478,Probabilistic Learning,3.1.0,60,,,,,c,0,0.995,1,0,3,1,1,2,hiragana2.xlsx,hiragana21.xlsx,hiragana22.xlsx,6,0,180,14,1,179,l14.jpg,l13.jpg,m,,m,,,,,,,,,,,,,,,,,,,,,,,,,,,,,,,,,,
,,,,,,,,,,,,,,,,0104,2019-06-11_16h22.58.478,Probabilistic Learning,3.1.0,60,,,,,m,0,0.496,1,0,3,1,1,2,hiragana2.xlsx,hiragana21.xlsx,hiragana22.xlsx,6,0,180,17,1,179,l14.jpg,l13.jpg,c,,m,,,,,,,,,,,,,,,,,,,,,,,,,,,,,,,,,,
,,,,,,,,,,,,,,,,0104,2019-06-11_16h22.58.478,Probabilistic Learning,3.1.0,60,,,,,c,0,0.713,1,0,3,1,1,2,hiragana2.xlsx,hiragana21.xlsx,hiragana22.xlsx,6,0,180,24,1,179,l16.jpg,l15.jpg,m,,,m,,,,,,,,,,,,,,,,,,,,,,,,,,,,,,,,,
,,,,,,,,,,,,,,,,0104,2019-06-11_16h22.58.478,Probabilistic Learning,3.1.0,60,,,,,c,1,0.947,1,0,3,1,1,2,hiragana2.xlsx,hiragana21.xlsx,hiragana22.xlsx,6,0,180,10,1,179,l13.jpg,l14.jpg,c,,c,,,,,,,,,,,,,,,,,,,,,,,,,,,,,,,,,,
,,,,,,,,,,,,,,,,0104,2019-06-11_16h22.58.478,Probabilistic Learning,3.1.0,60,,,,,m,1,0.679,1,0,3,1,1,2,hiragana2.xlsx,hiragana21.xlsx,hiragana22.xlsx,6,0,180,26,1,179,l15.jpg,l16.jpg,m,,,c,,,,,,,,,,,,,,,,,,,,,,,,,,,,,,,,,
,,,,,,,,,,,,,,,,0104,2019-06-11_16h22.58.478,Probabilistic Learning,3.1.0,60,,,,,m,0,0.613,1,0,3,1,1,2,hiragana2.xlsx,hiragana21.xlsx,hiragana22.xlsx,6,0,180,20,1,179,l15.jpg,l16.jpg,c,,,c,,,,,,,,,,,,,,,,,,,,,,,,,,,,,,,,,
,,,,,,,,,,,,,,,,0104,2019-06-11_16h22.58.478,Probabilistic Learning,3.1.0,60,,,,,c,1,0.714,1,0,3,1,1,2,hiragana2.xlsx,hiragana21.xlsx,hiragana22.xlsx,6,0,180,3,1,179,l11.jpg,l12.jpg,c,c,,,,,,,,,,,,,,,,,,,,,,,,,,,,,,,,,,,
,,,,,,,,,,,,,,,,0104,2019-06-11_16h22.58.478,Probabilistic Learning,3.1.0,60,,,,,m,0,0.731,1,0,3,1,1,2,hiragana2.xlsx,hiragana21.xlsx,hiragana22.xlsx,6,0,180,9,1,179,l12.jpg,l11.jpg,c,m,,,,,,,,,,,,,,,,,,,,,,,,,,,,,,,,,,,
,,,,,,,,,,,,,,,,0104,2019-06-11_16h22.58.478,Probabilistic Learning,3.1.0,60,,,,,c,0,1.114,1,0,3,1,1,2,hiragana2.xlsx,hiragana21.xlsx,hiragana22.xlsx,6,0,180,4,1,179,l12.jpg,l11.jpg,m,m,,,,,,,,,,,,,,,,,,,,,,,,,,,,,,,,,,,
,,,,,,,,,,,,,,,,0104,2019-06-11_16h22.58.478,Probabilistic Learning,3.1.0,60,,,,,c,0,0.679,1,0,3,1,1,2,hiragana2.xlsx,hiragana21.xlsx,hiragana22.xlsx,6,0,180,8,1,179,l11.jpg,l12.jpg,m,c,,,,,,,,,,,,,,,,,,,,,,,,,,,,,,,,,,,
,,,,,,,,,,,,,,,,0104,2019-06-11_16h22.58.478,Probabilistic Learning,3.1.0,60,,,,,c,1,0.764,1,0,3,1,1,2,hiragana2.xlsx,hiragana21.xlsx,hiragana22.xlsx,6,0,180,28,1,179,l16.jpg,l15.jpg,c,,,m,,,,,,,,,,,,,,,,,,,,,,,,,,,,,,,,,
,,,,,,,,,,,,,,,,0104,2019-06-11_16h22.58.478,Probabilistic Learning,3.1.0,60,,,,,m,0,0.631,1,0,3,1,1,2,hiragana2.xlsx,hiragana21.xlsx,hiragana22.xlsx,6,0,180,22,1,179,l15.jpg,l16.jpg,c,,,c,,,,,,,,,,,,,,,,,,,,,,,,,,,,,,,,,
,,,,,,,,,,,,,,,,0104,2019-06-11_16h22.58.478,Probabilistic Learning,3.1.0,60,,,,,m,1,0.63,1,0,3,1,1,2,hiragana2.xlsx,hiragana21.xlsx,hiragana22.xlsx,6,0,180,5,1,179,l12.jpg,l11.jpg,m,m,,,,,,,,,,,,,,,,,,,,,,,,,,,,,,,,,,,
,,,,,,,,,,,,,,,,0104,2019-06-11_16h22.58.478,Probabilistic Learning,3.1.0,60,,,,,,0,,1,0,3,1,1,2,hiragana2.xlsx,hiragana21.xlsx,hiragana22.xlsx,6,0,180,13,1,179,l13.jpg,l14.jpg,c,,c,,,,,,,,,,,,,,,,,,,,,,,,,,,,,,,,,,
,,,,,,,,,,,,,,,,0104,2019-06-11_16h22.58.478,Probabilistic Learning,3.1.0,60,,,,,c,1,0.612,1,0,3,1,1,2,hiragana2.xlsx,hiragana21.xlsx,hiragana22.xlsx,6,0,180,1,1,179,l11.jpg,l12.jpg,c,c,,,,,,,,,,,,,,,,,,,,,,,,,,,,,,,,,,,
,,,,,,,,,,,,,,,,0104,2019-06-11_16h22.58.478,Probabilistic Learning,3.1.0,60,,,,,c,0,0.595,1,0,3,1,1,2,hiragana2.xlsx,hiragana21.xlsx,hiragana22.xlsx,6,0,180,16,1,179,l14.jpg,l13.jpg,m,,m,,,,,,,,,,,,,,,,,,,,,,,,,,,,,,,,,,
,,,,,,,,,,,,,,,,0104,2019-06-11_16h22.58.478,Probabilistic Learning,3.1.0,60,,,,,m,0,0.695,1,0,3,1,1,2,hiragana2.xlsx,hiragana21.xlsx,hiragana22.xlsx,6,0,180,18,1,179,l14.jpg,l13.jpg,c,,m,,,,,,,,,,,,,,,,,,,,,,,,,,,,,,,,,,
,,,,,,,,,,,,,,,,0104,2019-06-11_16h22.58.478,Probabilistic Learning,3.1.0,60,,,,,m,0,0.796,1,0,3,1,1,2,hiragana2.xlsx,hiragana21.xlsx,hiragana22.xlsx,6,0,180,11,1,179,l13.jpg,l14.jpg,c,,c,,,,,,,,,,,,,,,,,,,,,,,,,,,,,,,,,,
,,,,,,,,,,,,,,,,0104,2019-06-11_16h22.58.478,Probabilistic Learning,3.1.0,60,,,,,c,0,0.597,1,0,3,1,1,2,hiragana2.xlsx,hiragana21.xlsx,hiragana22.xlsx,6,0,180,19,1,179,l13.jpg,l14.jpg,m,,c,,,,,,,,,,,,,,,,,,,,,,,,,,,,,,,,,,
,,,,,,,,,,,,,,,,0104,2019-06-11_16h22.58.478,Probabilistic Learning,3.1.0,60,,,,,c,0,0.663,1,0,3,1,1,2,hiragana2.xlsx,hiragana21.xlsx,hiragana22.xlsx,6,0,180,23,1,179,l16.jpg,l15.jpg,m,,,m,,,,,,,,,,,,,,,,,,,,,,,,,,,,,,,,,
,,,,,,,,,,,,,,,,0104,2019-06-11_16h22.58.478,Probabilistic Learning,3.1.0,60,,,,,c,1,0.614,1,0,3,1,1,2,hiragana2.xlsx,hiragana21.xlsx,hiragana22.xlsx,6,0,180,2,1,179,l11.jpg,l12.jpg,c,c,,,,,,,,,,,,,,,,,,,,,,,,,,,,,,,,,,,
,,,,,,,,,,,,,,,,0104,2019-06-11_16h22.58.478,Probabilistic Learning,3.1.0,60,,,,,c,1,0.563,1,0,3,1,1,2,hiragana2.xlsx,hiragana21.xlsx,hiragana22.xlsx,6,0,180,0,1,179,l11.jpg,l12.jpg,c,c,,,,,,,,,,,,,,,,,,,,,,,,,,,,,,,,,,,
,,,,,,,,,,,,,,,,0104,2019-06-11_16h22.58.478,Probabilistic Learning,3.1.0,60,,,,,c,1,0.645,1,0,3,1,1,2,hiragana2.xlsx,hiragana21.xlsx,hiragana22.xlsx,6,0,180,29,1,179,l16.jpg,l15.jpg,c,,,m,,,,,,,,,,,,,,,,,,,,,,,,,,,,,,,,,
,,,,,,,,,,,,,,,,0104,2019-06-11_16h22.58.478,Probabilistic Learning,3.1.0,60,,,,,m,0,0.864,1,0,3,1,1,2,hiragana2.xlsx,hiragana21.xlsx,hiragana22.xlsx,6,0,180,18,1,179,l14.jpg,l13.jpg,c,,m,,,,,,,,,,,,,,,,,,,,,,,,,,,,,,,,,,
,,,,,,,,,,,,,,,,0104,2019-06-11_16h22.58.478,Probabilistic Learning,3.1.0,60,,,,,c,0,0.979,1,0,3,1,1,2,hiragana2.xlsx,hiragana21.xlsx,hiragana22.xlsx,6,0,180,27,1,179,l15.jpg,l16.jpg,m,,,c,,,,,,,,,,,,,,,,,,,,,,,,,,,,,,,,,
,,,,,,,,,,,,,,,,0104,2019-06-11_16h22.58.478,Probabilistic Learning,3.1.0,60,,,,,m,0,0.48,1,0,3,1,1,2,hiragana2.xlsx,hiragana21.xlsx,hiragana22.xlsx,6,0,180,9,1,179,l12.jpg,l11.jpg,c,m,,,,,,,,,,,,,,,,,,,,,,,,,,,,,,,,,,,
,,,,,,,,,,,,,,,,0104,2019-06-11_16h22.58.478,Probabilistic Learning,3.1.0,60,,,,,c,1,0.463,1,0,3,1,1,2,hiragana2.xlsx,hiragana21.xlsx,hiragana22.xlsx,6,0,180,22,1,179,l15.jpg,l16.jpg,c,,,c,,,,,,,,,,,,,,,,,,,,,,,,,,,,,,,,,
,,,,,,,,,,,,,,,,0104,2019-06-11_16h22.58.478,Probabilistic Learning,3.1.0,60,,,,,m,1,0.814,1,0,3,1,1,2,hiragana2.xlsx,hiragana21.xlsx,hiragana22.xlsx,6,0,180,7,1,179,l12.jpg,l11.jpg,m,m,,,,,,,,,,,,,,,,,,,,,,,,,,,,,,,,,,,
,,,,,,,,,,,,,,,,0104,2019-06-11_16h22.58.478,Probabilistic Learning,3.1.0,60,,,,,c,1,0.546,1,0,3,1,1,2,hiragana2.xlsx,hiragana21.xlsx,hiragana22.xlsx,6,0,180,0,1,179,l11.jpg,l12.jpg,c,c,,,,,,,,,,,,,,,,,,,,,,,,,,,,,,,,,,,
,,,,,,,,,,,,,,,,0104,2019-06-11_16h22.58.478,Probabilistic Learning,3.1.0,60,,,,,c,0,0.564,1,0,3,1,1,2,hiragana2.xlsx,hiragana21.xlsx,hiragana22.xlsx,6,0,180,8,1,179,l11.jpg,l12.jpg,m,c,,,,,,,,,,,,,,,,,,,,,,,,,,,,,,,,,,,
,,,,,,,,,,,,,,,,0104,2019-06-11_16h22.58.478,Probabilistic Learning,3.1.0,60,,,,,m,0,0.913,1,0,3,1,1,2,hiragana2.xlsx,hiragana21.xlsx,hiragana22.xlsx,6,0,180,21,1,179,l15.jpg,l16.jpg,c,,,c,,,,,,,,,,,,,,,,,,,,,,,,,,,,,,,,,
,,,,,,,,,,,,,,,,0104,2019-06-11_16h22.58.478,Probabilistic Learning,3.1.0,60,,,,,m,1,0.712,1,0,3,1,1,2,hiragana2.xlsx,hiragana21.xlsx,hiragana22.xlsx,6,0,180,4,1,179,l12.jpg,l11.jpg,m,m,,,,,,,,,,,,,,,,,,,,,,,,,,,,,,,,,,,
,,,,,,,,,,,,,,,,0104,2019-06-11_16h22.58.478,Probabilistic Learning,3.1.0,60,,,,,c,1,0.663,1,0,3,1,1,2,hiragana2.xlsx,hiragana21.xlsx,hiragana22.xlsx,6,0,180,17,1,179,l14.jpg,l13.jpg,c,,m,,,,,,,,,,,,,,,,,,,,,,,,,,,,,,,,,,
,,,,,,,,,,,,,,,,0104,2019-06-11_16h22.58.478,Probabilistic Learning,3.1.0,60,,,,,c,1,0.665,1,0,3,1,1,2,hiragana2.xlsx,hiragana21.xlsx,hiragana22.xlsx,6,0,180,28,1,179,l16.jpg,l15.jpg,c,,,m,,,,,,,,,,,,,,,,,,,,,,,,,,,,,,,,,
,,,,,,,,,,,,,,,,0104,2019-06-11_16h22.58.478,Probabilistic Learning,3.1.0,60,,,,,c,1,0.613,1,0,3,1,1,2,hiragana2.xlsx,hiragana21.xlsx,hiragana22.xlsx,6,0,180,3,1,179,l11.jpg,l12.jpg,c,c,,,,,,,,,,,,,,,,,,,,,,,,,,,,,,,,,,,
,,,,,,,,,,,,,,,,0104,2019-06-11_16h22.58.478,Probabilistic Learning,3.1.0,60,,,,,c,1,0.812,1,0,3,1,1,2,hiragana2.xlsx,hiragana21.xlsx,hiragana22.xlsx,6,0,180,13,1,179,l13.jpg,l14.jpg,c,,c,,,,,,,,,,,,,,,,,,,,,,,,,,,,,,,,,,
,,,,,,,,,,,,,,,,0104,2019-06-11_16h22.58.478,Probabilistic Learning,3.1.0,60,,,,,c,0,0.646,1,0,3,1,1,2,hiragana2.xlsx,hiragana21.xlsx,hiragana22.xlsx,6,0,180,24,1,179,l16.jpg,l15.jpg,m,,,m,,,,,,,,,,,,,,,,,,,,,,,,,,,,,,,,,
,,,,,,,,,,,,,,,,0104,2019-06-11_16h22.58.478,Probabilistic Learning,3.1.0,60,,,,,c,1,0.764,1,0,3,1,1,2,hiragana2.xlsx,hiragana21.xlsx,hiragana22.xlsx,6,0,180,11,1,179,l13.jpg,l14.jpg,c,,c,,,,,,,,,,,,,,,,,,,,,,,,,,,,,,,,,,
,,,,,,,,,,,,,,,,0104,2019-06-11_16h22.58.478,Probabilistic Learning,3.1.0,60,,,,,m,1,0.814,1,0,3,1,1,2,hiragana2.xlsx,hiragana21.xlsx,hiragana22.xlsx,6,0,180,14,1,179,l14.jpg,l13.jpg,m,,m,,,,,,,,,,,,,,,,,,,,,,,,,,,,,,,,,,
,,,,,,,,,,,,,,,,0104,2019-06-11_16h22.58.478,Probabilistic Learning,3.1.0,60,,,,,c,1,0.563,1,0,3,1,1,2,hiragana2.xlsx,hiragana21.xlsx,hiragana22.xlsx,6,0,180,10,1,179,l13.jpg,l14.jpg,c,,c,,,,,,,,,,,,,,,,,,,,,,,,,,,,,,,,,,
,,,,,,,,,,,,,,,,0104,2019-06-11_16h22.58.478,Probabilistic Learning,3.1.0,60,,,,,m,1,0.93,1,0,3,1,1,2,hiragana2.xlsx,hiragana21.xlsx,hiragana22.xlsx,6,0,180,26,1,179,l15.jpg,l16.jpg,m,,,c,,,,,,,,,,,,,,,,,,,,,,,,,,,,,,,,,
,,,,,,,,,,,,,,,,0104,2019-06-11_16h22.58.478,Probabilistic Learning,3.1.0,60,,,,,m,1,0.862,1,0,3,1,1,2,hiragana2.xlsx,hiragana21.xlsx,hiragana22.xlsx,6,0,180,15,1,179,l14.jpg,l13.jpg,m,,m,,,,,,,,,,,,,,,,,,,,,,,,,,,,,,,,,,
,,,,,,,,,,,,,,,,0104,2019-06-11_16h22.58.478,Probabilistic Learning,3.1.0,60,,,,,c,0,0.562,1,0,3,1,1,2,hiragana2.xlsx,hiragana21.xlsx,hiragana22.xlsx,6,0,180,19,1,179,l13.jpg,l14.jpg,m,,c,,,,,,,,,,,,,,,,,,,,,,,,,,,,,,,,,,
,,,,,,,,,,,,,,,,0104,2019-06-11_16h22.58.478,Probabilistic Learning,3.1.0,60,,,,,m,1,0.596,1,0,3,1,1,2,hiragana2.xlsx,hiragana21.xlsx,hiragana22.xlsx,6,0,180,6,1,179,l12.jpg,l11.jpg,m,m,,,,,,,,,,,,,,,,,,,,,,,,,,,,,,,,,,,
,,,,,,,,,,,,,,,,0104,2019-06-11_16h22.58.478,Probabilistic Learning,3.1.0,60,,,,,c,0,0.512,1,0,3,1,1,2,hiragana2.xlsx,hiragana21.xlsx,hiragana22.xlsx,6,0,180,16,1,179,l14.jpg,l13.jpg,m,,m,,,,,,,,,,,,,,,,,,,,,,,,,,,,,,,,,,
,,,,,,,,,,,,,,,,0104,2019-06-11_16h22.58.478,Probabilistic Learning,3.1.0,60,,,,,m,0,0.73,1,0,3,1,1,2,hiragana2.xlsx,hiragana21.xlsx,hiragana22.xlsx,6,0,180,20,1,179,l15.jpg,l16.jpg,c,,,c,,,,,,,,,,,,,,,,,,,,,,,,,,,,,,,,,
,,,,,,,,,,,,,,,,0104,2019-06-11_16h22.58.478,Probabilistic Learning,3.1.0,60,,,,,c,1,0.679,1,0,3,1,1,2,hiragana2.xlsx,hiragana21.xlsx,hiragana22.xlsx,6,0,180,2,1,179,l11.jpg,l12.jpg,c,c,,,,,,,,,,,,,,,,,,,,,,,,,,,,,,,,,,,
,,,,,,,,,,,,,,,,0104,2019-06-11_16h22.58.478,Probabilistic Learning,3.1.0,60,,,,,c,0,0.729,1,0,3,1,1,2,hiragana2.xlsx,hiragana21.xlsx,hiragana22.xlsx,6,0,180,25,1,179,l16.jpg,l15.jpg,m,,,m,,,,,,,,,,,,,,,,,,,,,,,,,,,,,,,,,
,,,,,,,,,,,,,,,,0104,2019-06-11_16h22.58.478,Probabilistic Learning,3.1.0,60,,,,,c,1,1.045,1,0,3,1,1,2,hiragana2.xlsx,hiragana21.xlsx,hiragana22.xlsx,6,0,180,12,1,179,l13.jpg,l14.jpg,c,,c,,,,,,,,,,,,,,,,,,,,,,,,,,,,,,,,,,
,,,,,,,,,,,,,,,,0104,2019-06-11_16h22.58.478,Probabilistic Learning,3.1.0,60,,,,,c,1,0.629,1,0,3,1,1,2,hiragana2.xlsx,hiragana21.xlsx,hiragana22.xlsx,6,0,180,29,1,179,l16.jpg,l15.jpg,c,,,m,,,,,,,,,,,,,,,,,,,,,,,,,,,,,,,,,
,,,,,,,,,,,,,,,,0104,2019-06-11_16h22.58.478,Probabilistic Learning,3.1.0,60,,,,,c,1,0.662,1,0,3,1,1,2,hiragana2.xlsx,hiragana21.xlsx,hiragana22.xlsx,6,0,180,1,1,179,l11.jpg,l12.jpg,c,c,,,,,,,,,,,,,,,,,,,,,,,,,,,,,,,,,,,
,,,,,,,,,,,,,,,,0104,2019-06-11_16h22.58.478,Probabilistic Learning,3.1.0,60,,,,,m,1,0.73,1,0,3,1,1,2,hiragana2.xlsx,hiragana21.xlsx,hiragana22.xlsx,6,0,180,5,1,179,l12.jpg,l11.jpg,m,m,,,,,,,,,,,,,,,,,,,,,,,,,,,,,,,,,,,
,,,,,,,,,,,,,,,,0104,2019-06-11_16h22.58.478,Probabilistic Learning,3.1.0,60,,,,,c,0,0.562,1,0,3,1,1,2,hiragana2.xlsx,hiragana21.xlsx,hiragana22.xlsx,6,0,180,23,1,179,l16.jpg,l15.jpg,m,,,m,,,,,,,,,,,,,,,,,,,,,,,,,,,,,,,,,
,,,,,,,,,,,,,,,,0104,2019-06-11_16h22.58.478,Probabilistic Learning,3.1.0,60,,,,,m,0,0.712,1,0,3,1,1,2,hiragana2.xlsx,hiragana21.xlsx,hiragana22.xlsx,6,0,180,18,1,179,l14.jpg,l13.jpg,c,,m,,,,,,,,,,,,,,,,,,,,,,,,,,,,,,,,,,
,,,,,,,,,,,,,,,,0104,2019-06-11_16h22.58.478,Probabilistic Learning,3.1.0,60,,,,,m,1,0.613,1,0,3,1,1,2,hiragana2.xlsx,hiragana21.xlsx,hiragana22.xlsx,6,0,180,26,1,179,l15.jpg,l16.jpg,m,,,c,,,,,,,,,,,,,,,,,,,,,,,,,,,,,,,,,
,,,,,,,,,,,,,,,,0104,2019-06-11_16h22.58.478,Probabilistic Learning,3.1.0,60,,,,,m,0,0.778,1,0,3,1,1,2,hiragana2.xlsx,hiragana21.xlsx,hiragana22.xlsx,6,0,180,20,1,179,l15.jpg,l16.jpg,c,,,c,,,,,,,,,,,,,,,,,,,,,,,,,,,,,,,,,
,,,,,,,,,,,,,,,,0104,2019-06-11_16h22.58.478,Probabilistic Learning,3.1.0,60,,,,,c,0,0.896,1,0,3,1,1,2,hiragana2.xlsx,hiragana21.xlsx,hiragana22.xlsx,6,0,180,19,1,179,l13.jpg,l14.jpg,m,,c,,,,,,,,,,,,,,,,,,,,,,,,,,,,,,,,,,
,,,,,,,,,,,,,,,,0104,2019-06-11_16h22.58.478,Probabilistic Learning,3.1.0,60,,,,,c,0,0.646,1,0,3,1,1,2,hiragana2.xlsx,hiragana21.xlsx,hiragana22.xlsx,6,0,180,16,1,179,l14.jpg,l13.jpg,m,,m,,,,,,,,,,,,,,,,,,,,,,,,,,,,,,,,,,
,,,,,,,,,,,,,,,,0104,2019-06-11_16h22.58.478,Probabilistic Learning,3.1.0,60,,,,,c,1,0.547,1,0,3,1,1,2,hiragana2.xlsx,hiragana21.xlsx,hiragana22.xlsx,6,0,180,12,1,179,l13.jpg,l14.jpg,c,,c,,,,,,,,,,,,,,,,,,,,,,,,,,,,,,,,,,
,,,,,,,,,,,,,,,,0104,2019-06-11_16h22.58.478,Probabilistic Learning,3.1.0,60,,,,,m,1,0.613,1,0,3,1,1,2,hiragana2.xlsx,hiragana21.xlsx,hiragana22.xlsx,6,0,180,7,1,179,l12.jpg,l11.jpg,m,m,,,,,,,,,,,,,,,,,,,,,,,,,,,,,,,,,,,
,,,,,,,,,,,,,,,,0104,2019-06-11_16h22.58.478,Probabilistic Learning,3.1.0,60,,,,,c,0,0.614,1,0,3,1,1,2,hiragana2.xlsx,hiragana21.xlsx,hiragana22.xlsx,6,0,180,24,1,179,l16.jpg,l15.jpg,m,,,m,,,,,,,,,,,,,,,,,,,,,,,,,,,,,,,,,
,,,,,,,,,,,,,,,,0104,2019-06-11_16h22.58.478,Probabilistic Learning,3.1.0,60,,,,,c,1,0.748,1,0,3,1,1,2,hiragana2.xlsx,hiragana21.xlsx,hiragana22.xlsx,6,0,180,13,1,179,l13.jpg,l14.jpg,c,,c,,,,,,,,,,,,,,,,,,,,,,,,,,,,,,,,,,
,,,,,,,,,,,,,,,,0104,2019-06-11_16h22.58.478,Probabilistic Learning,3.1.0,60,,,,,c,0,0.779,1,0,3,1,1,2,hiragana2.xlsx,hiragana21.xlsx,hiragana22.xlsx,6,0,180,25,1,179,l16.jpg,l15.jpg,m,,,m,,,,,,,,,,,,,,,,,,,,,,,,,,,,,,,,,
,,,,,,,,,,,,,,,,0104,2019-06-11_16h22.58.478,Probabilistic Learning,3.1.0,60,,,,,c,1,0.662,1,0,3,1,1,2,hiragana2.xlsx,hiragana21.xlsx,hiragana22.xlsx,6,0,180,17,1,179,l14.jpg,l13.jpg,c,,m,,,,,,,,,,,,,,,,,,,,,,,,,,,,,,,,,,
,,,,,,,,,,,,,,,,0104,2019-06-11_16h22.58.478,Probabilistic Learning,3.1.0,60,,,,,c,0,0.764,1,0,3,1,1,2,hiragana2.xlsx,hiragana21.xlsx,hiragana22.xlsx,6,0,180,14,1,179,l14.jpg,l13.jpg,m,,m,,,,,,,,,,,,,,,,,,,,,,,,,,,,,,,,,,
,,,,,,,,,,,,,,,,0104,2019-06-11_16h22.58.478,Probabilistic Learning,3.1.0,60,,,,,c,1,0.597,1,0,3,1,1,2,hiragana2.xlsx,hiragana21.xlsx,hiragana22.xlsx,6,0,180,0,1,179,l11.jpg,l12.jpg,c,c,,,,,,,,,,,,,,,,,,,,,,,,,,,,,,,,,,,
,,,,,,,,,,,,,,,,0104,2019-06-11_16h22.58.478,Probabilistic Learning,3.1.0,60,,,,,c,1,0.713,1,0,3,1,1,2,hiragana2.xlsx,hiragana21.xlsx,hiragana22.xlsx,6,0,180,10,1,179,l13.jpg,l14.jpg,c,,c,,,,,,,,,,,,,,,,,,,,,,,,,,,,,,,,,,
,,,,,,,,,,,,,,,,0104,2019-06-11_16h22.58.478,Probabilistic Learning,3.1.0,60,,,,,m,0,0.644,1,0,3,1,1,2,hiragana2.xlsx,hiragana21.xlsx,hiragana22.xlsx,6,0,180,22,1,179,l15.jpg,l16.jpg,c,,,c,,,,,,,,,,,,,,,,,,,,,,,,,,,,,,,,,
,,,,,,,,,,,,,,,,0104,2019-06-11_16h22.58.478,Probabilistic Learning,3.1.0,60,,,,,c,0,1.03,1,0,3,1,1,2,hiragana2.xlsx,hiragana21.xlsx,hiragana22.xlsx,6,0,180,27,1,179,l15.jpg,l16.jpg,m,,,c,,,,,,,,,,,,,,,,,,,,,,,,,,,,,,,,,
,,,,,,,,,,,,,,,,0104,2019-06-11_16h22.58.478,Probabilistic Learning,3.1.0,60,,,,,c,1,0.598,1,0,3,1,1,2,hiragana2.xlsx,hiragana21.xlsx,hiragana22.xlsx,6,0,180,29,1,179,l16.jpg,l15.jpg,c,,,m,,,,,,,,,,,,,,,,,,,,,,,,,,,,,,,,,
,,,,,,,,,,,,,,,,0104,2019-06-11_16h22.58.478,Probabilistic Learning,3.1.0,60,,,,,c,0,0.679,1,0,3,1,1,2,hiragana2.xlsx,hiragana21.xlsx,hiragana22.xlsx,6,0,180,15,1,179,l14.jpg,l13.jpg,m,,m,,,,,,,,,,,,,,,,,,,,,,,,,,,,,,,,,,
,,,,,,,,,,,,,,,,0104,2019-06-11_16h22.58.478,Probabilistic Learning,3.1.0,60,,,,,c,0,0.562,1,0,3,1,1,2,hiragana2.xlsx,hiragana21.xlsx,hiragana22.xlsx,6,0,180,8,1,179,l11.jpg,l12.jpg,m,c,,,,,,,,,,,,,,,,,,,,,,,,,,,,,,,,,,,
,,,,,,,,,,,,,,,,0104,2019-06-11_16h22.58.478,Probabilistic Learning,3.1.0,60,,,,,m,0,0.495,1,0,3,1,1,2,hiragana2.xlsx,hiragana21.xlsx,hiragana22.xlsx,6,0,180,1,1,179,l11.jpg,l12.jpg,c,c,,,,,,,,,,,,,,,,,,,,,,,,,,,,,,,,,,,
,,,,,,,,,,,,,,,,0104,2019-06-11_16h22.58.478,Probabilistic Learning,3.1.0,60,,,,,m,0,0.646,1,0,3,1,1,2,hiragana2.xlsx,hiragana21.xlsx,hiragana22.xlsx,6,0,180,9,1,179,l12.jpg,l11.jpg,c,m,,,,,,,,,,,,,,,,,,,,,,,,,,,,,,,,,,,
,,,,,,,,,,,,,,,,0104,2019-06-11_16h22.58.478,Probabilistic Learning,3.1.0,60,,,,,m,1,0.695,1,0,3,1,1,2,hiragana2.xlsx,hiragana21.xlsx,hiragana22.xlsx,6,0,180,6,1,179,l12.jpg,l11.jpg,m,m,,,,,,,,,,,,,,,,,,,,,,,,,,,,,,,,,,,
,,,,,,,,,,,,,,,,0104,2019-06-11_16h22.58.478,Probabilistic Learning,3.1.0,60,,,,,m,1,0.563,1,0,3,1,1,2,hiragana2.xlsx,hiragana21.xlsx,hiragana22.xlsx,6,0,180,4,1,179,l12.jpg,l11.jpg,m,m,,,,,,,,,,,,,,,,,,,,,,,,,,,,,,,,,,,
,,,,,,,,,,,,,,,,0104,2019-06-11_16h22.58.478,Probabilistic Learning,3.1.0,60,,,,,m,1,0.546,1,0,3,1,1,2,hiragana2.xlsx,hiragana21.xlsx,hiragana22.xlsx,6,0,180,5,1,179,l12.jpg,l11.jpg,m,m,,,,,,,,,,,,,,,,,,,,,,,,,,,,,,,,,,,
,,,,,,,,,,,,,,,,0104,2019-06-11_16h22.58.478,Probabilistic Learning,3.1.0,60,,,,,c,1,0.58,1,0,3,1,1,2,hiragana2.xlsx,hiragana21.xlsx,hiragana22.xlsx,6,0,180,2,1,179,l11.jpg,l12.jpg,c,c,,,,,,,,,,,,,,,,,,,,,,,,,,,,,,,,,,,
,,,,,,,,,,,,,,,,0104,2019-06-11_16h22.58.478,Probabilistic Learning,3.1.0,60,,,,,c,1,0.83,1,0,3,1,1,2,hiragana2.xlsx,hiragana21.xlsx,hiragana22.xlsx,6,0,180,21,1,179,l15.jpg,l16.jpg,c,,,c,,,,,,,,,,,,,,,,,,,,,,,,,,,,,,,,,
,,,,,,,,,,,,,,,,0104,2019-06-11_16h22.58.478,Probabilistic Learning,3.1.0,60,,,,,c,0,0.68,1,0,3,1,1,2,hiragana2.xlsx,hiragana21.xlsx,hiragana22.xlsx,6,0,180,23,1,179,l16.jpg,l15.jpg,m,,,m,,,,,,,,,,,,,,,,,,,,,,,,,,,,,,,,,
,,,,,,,,,,,,,,,,0104,2019-06-11_16h22.58.478,Probabilistic Learning,3.1.0,60,,,,,c,1,0.712,1,0,3,1,1,2,hiragana2.xlsx,hiragana21.xlsx,hiragana22.xlsx,6,0,180,3,1,179,l11.jpg,l12.jpg,c,c,,,,,,,,,,,,,,,,,,,,,,,,,,,,,,,,,,,
,,,,,,,,,,,,,,,,0104,2019-06-11_16h22.58.478,Probabilistic Learning,3.1.0,60,,,,,m,0,0.513,1,0,3,1,1,2,hiragana2.xlsx,hiragana21.xlsx,hiragana22.xlsx,6,0,180,28,1,179,l16.jpg,l15.jpg,c,,,m,,,,,,,,,,,,,,,,,,,,,,,,,,,,,,,,,
,,,,,,,,,,,,,,,,0104,2019-06-11_16h22.58.478,Probabilistic Learning,3.1.0,60,,,,,c,1,0.78,1,0,3,1,1,2,hiragana2.xlsx,hiragana21.xlsx,hiragana22.xlsx,6,0,180,11,1,179,l13.jpg,l14.jpg,c,,c,,,,,,,,,,,,,,,,,,,,,,,,,,,,,,,,,,
,,,,,,,,,,,,,,,,0104,2019-06-11_16h22.58.478,Probabilistic Learning,3.1.0,60,,,,,,,,1,0,3,1,1,2,hiragana2.xlsx,hiragana21.xlsx,hiragana22.xlsx,,,,,,,,,,,,,m,1.23,m,7.61,c,0.58,2,0,92,41,1,91,l16.jpg,l13.jpg,f,c,,,,,,,,,,,,,,,,,
,,,,,,,,,,,,,,,,0104,2019-06-11_16h22.58.478,Probabilistic Learning,3.1.0,60,,,,,,,,1,0,3,1,1,2,hiragana2.xlsx,hiragana21.xlsx,hiragana22.xlsx,,,,,,,,,,,,,,,,,c,0.647,2,0,92,10,1,91,l11.jpg,l14.jpg,A,D,c,,,,,,,,,,,,,,,,
,,,,,,,,,,,,,,,,0104,2019-06-11_16h22.58.478,Probabilistic Learning,3.1.0,60,,,,,,,,1,0,3,1,1,2,hiragana2.xlsx,hiragana21.xlsx,hiragana22.xlsx,,,,,,,,,,,,,,,,,m,0.529,2,0,92,23,1,91,l12.jpg,l13.jpg,B,C,,m,,,,,,,,,,,,,,,
,,,,,,,,,,,,,,,,0104,2019-06-11_16h22.58.478,Probabilistic Learning,3.1.0,60,,,,,,,,1,0,3,1,1,2,hiragana2.xlsx,hiragana21.xlsx,hiragana22.xlsx,,,,,,,,,,,,,,,,,c,0.613,2,0,92,14,1,91,l11.jpg,l15.jpg,A,E,c,,,,,,,,,,,,,,,,
,,,,,,,,,,,,,,,,0104,2019-06-11_16h22.58.478,Probabilistic Learning,3.1.0,60,,,,,,,,1,0,3,1,1,2,hiragana2.xlsx,hiragana21.xlsx,hiragana22.xlsx,,,,,,,,,,,,,,,,,m,0.878,2,0,92,11,1,91,l11.jpg,l14.jpg,A,D,c,,,,,,,,,,,,,,,,
,,,,,,,,,,,,,,,,0104,2019-06-11_16h22.58.478,Probabilistic Learning,3.1.0,60,,,,,,,,1,0,3,1,1,2,hiragana2.xlsx,hiragana21.xlsx,hiragana22.xlsx,,,,,,,,,,,,,,,,,m,0.928,2,0,92,22,1,91,l12.jpg,l13.jpg,B,C,,m,,,,,,,,,,,,,,,
,,,,,,,,,,,,,,,,0104,2019-06-11_16h22.58.478,Probabilistic Learning,3.1.0,60,,,,,,,,1,0,3,1,1,2,hiragana2.xlsx,hiragana21.xlsx,hiragana22.xlsx,,,,,,,,,,,,,,,,,m,0.847,2,0,92,40,1,91,l13.jpg,l16.jpg,c,f,,,,,,,,,,,,,,,,,
,,,,,,,,,,,,,,,,0104,2019-06-11_16h22.58.478,Probabilistic Learning,3.1.0,60,,,,,,,,1,0,3,1,1,2,hiragana2.xlsx,hiragana21.xlsx,hiragana22.xlsx,,,,,,,,,,,,,,,,,c,0.529,2,0,92,25,1,91,l13.jpg,l12.jpg,C,B,,c,,,,,,,,,,,,,,,
,,,,,,,,,,,,,,,,0104,2019-06-11_16h22.58.478,Probabilistic Learning,3.1.0,60,,,,,,,,1,0,3,1,1,2,hiragana2.xlsx,hiragana21.xlsx,hiragana22.xlsx,,,,,,,,,,,,,,,,,c,0.48,2,0,92,38,1,91,l13.jpg,l15.jpg,C,E,,,,,,,,,,,,,,,,,
,,,,,,,,,,,,,,,,0104,2019-06-11_16h22.58.478,Probabilistic Learning,3.1.0,60,,,,,,,,1,0,3,1,1,2,hiragana2.xlsx,hiragana21.xlsx,hiragana22.xlsx,,,,,,,,,,,,,,,,,c,0.93,2,0,92,37,1,91,l16.jpg,l12.jpg,F,B,,c,,,,,,,,,,,,,,,
,,,,,,,,,,,,,,,,0104,2019-06-11_16h22.58.478,Probabilistic Learning,3.1.0,60,,,,,,,,1,0,3,1,1,2,hiragana2.xlsx,hiragana21.xlsx,hiragana22.xlsx,,,,,,,,,,,,,,,,,m,0.862,2,0,92,9,1,91,l13.jpg,l11.jpg,C,A,m,,,,,,,,,,,,,,,,
,,,,,,,,,,,,,,,,0104,2019-06-11_16h22.58.478,Probabilistic Learning,3.1.0,60,,,,,,,,1,0,3,1,1,2,hiragana2.xlsx,hiragana21.xlsx,hiragana22.xlsx,,,,,,,,,,,,,,,,,m,0.747,2,0,92,26,1,91,l12.jpg,l14.jpg,B,D,,m,,,,,,,,,,,,,,,
,,,,,,,,,,,,,,,,0104,2019-06-11_16h22.58.478,Probabilistic Learning,3.1.0,60,,,,,,,,1,0,3,1,1,2,hiragana2.xlsx,hiragana21.xlsx,hiragana22.xlsx,,,,,,,,,,,,,,,,,c,0.562,2,0,92,24,1,91,l13.jpg,l12.jpg,C,B,,c,,,,,,,,,,,,,,,
,,,,,,,,,,,,,,,,0104,2019-06-11_16h22.58.478,Probabilistic Learning,3.1.0,60,,,,,,,,1,0,3,1,1,2,hiragana2.xlsx,hiragana21.xlsx,hiragana22.xlsx,,,,,,,,,,,,,,,,,m,0.646,2,0,92,34,1,91,l12.jpg,l16.jpg,B,F,,m,,,,,,,,,,,,,,,
,,,,,,,,,,,,,,,,0104,2019-06-11_16h22.58.478,Probabilistic Learning,3.1.0,60,,,,,,,,1,0,3,1,1,2,hiragana2.xlsx,hiragana21.xlsx,hiragana22.xlsx,,,,,,,,,,,,,,,,,c,0.614,2,0,92,0,1,91,l11.jpg,l12.jpg,A,B,,,,,,,,,,,,,,,,,
