welc_resp.keys,welc_resp.rt,intr0_resp.keys,intr0_resp.rt,prep_resp.keys,prep_resp.corr,prep_resp.rt,preparation.thisRepN,preparation.thisTrialN,preparation.thisN,preparation.thisIndex,preparation.ran,preparation.order,letter10,letter20,corrAns0,participant,,date,expName,psychopyVersion,frameRate,outro_resp.keys,outro_resp.rt,instr1_resp.keys,instr1_resp.rt,resp.keys,resp.corr,letterMaster.thisRepN,letterMaster.thisTrialN,letterMaster.thisN,letterMaster.thisIndex,letterMaster.ran,letterMaster.order,letterset,letterset2,letterset3,practice.thisRepN,practice.thisTrialN,practice.thisN,practice.thisIndex,practice.ran,practice.order,letter1,letter2,corrAns,letterA,letterC,letterE,instr2_resp.keys,instr2_resp.rt,instr3_resp.keys,instr3_resp.rt,test_resp.keys,test.thisRepN,test.thisTrialN,test.thisN,test.thisIndex,test.ran,test.order,letter3,letter4,letterA2,letterB2,pickA,avoidB,check_resp.keys,check_resp.rt,learnt_resp.keys,learnt_resp.rt,checks.thisRepN,checks.thisTrialN,checks.thisN,checks.thisIndex,checks.ran,checks.order,question,learnt_letters,numbers,outro_resp2.keys,outro_resp2.rt
space,1.887,space,0.431,m,1,0.385,1,0,10,9,1,9,U,L,m,,,2019-05-27_19h32.59.952,Probabilistic Learning,3.1.0,60,,,,,,,,,,,,,,,,,,,,,,,,,,,,,,,,,,,,,,,,,,,,,,,,,,,,,,,,,,,
,,,,m,0,0.397,1,0,10,6,1,9,U,L,c,,,2019-05-27_19h32.59.952,Probabilistic Learning,3.1.0,60,,,,,,,,,,,,,,,,,,,,,,,,,,,,,,,,,,,,,,,,,,,,,,,,,,,,,,,,,,,
,,,,m,1,0.414,1,0,10,7,1,9,L,U,m,,,2019-05-27_19h32.59.952,Probabilistic Learning,3.1.0,60,,,,,,,,,,,,,,,,,,,,,,,,,,,,,,,,,,,,,,,,,,,,,,,,,,,,,,,,,,,
,,,,,0,,1,0,10,5,1,9,U,L,c,,,2019-05-27_19h32.59.952,Probabilistic Learning,3.1.0,60,,,,,,,,,,,,,,,,,,,,,,,,,,,,,,,,,,,,,,,,,,,,,,,,,,,,,,,,,,,
,,,,m,0,0.18,1,0,10,4,1,9,U,L,c,,,2019-05-27_19h32.59.952,Probabilistic Learning,3.1.0,60,,,,,,,,,,,,,,,,,,,,,,,,,,,,,,,,,,,,,,,,,,,,,,,,,,,,,,,,,,,
,,,,m,1,0.096,1,0,10,2,1,9,L,U,m,,,2019-05-27_19h32.59.952,Probabilistic Learning,3.1.0,60,,,,,,,,,,,,,,,,,,,,,,,,,,,,,,,,,,,,,,,,,,,,,,,,,,,,,,,,,,,
,,,,m,0,0.081,1,0,10,8,1,9,L,U,c,,,2019-05-27_19h32.59.952,Probabilistic Learning,3.1.0,60,,,,,,,,,,,,,,,,,,,,,,,,,,,,,,,,,,,,,,,,,,,,,,,,,,,,,,,,,,,
,,,,m,1,0.214,1,0,10,3,1,9,L,U,m,,,2019-05-27_19h32.59.952,Probabilistic Learning,3.1.0,60,,,,,,,,,,,,,,,,,,,,,,,,,,,,,,,,,,,,,,,,,,,,,,,,,,,,,,,,,,,
,,,,m,0,0.263,1,0,10,0,1,9,U,L,c,,,2019-05-27_19h32.59.952,Probabilistic Learning,3.1.0,60,,,,,,,,,,,,,,,,,,,,,,,,,,,,,,,,,,,,,,,,,,,,,,,,,,,,,,,,,,,
,,,,m,0,0.314,1,0,10,1,1,9,U,L,c,,,2019-05-27_19h32.59.952,Probabilistic Learning,3.1.0,60,,,,,,,,,,,,,,,,,,,,,,,,,,,,,,,,,,,,,,,,,,,,,,,,,,,,,,,,,,,
,,,,,,,,,,,,,,,,,,2019-05-27_19h32.59.952,Probabilistic Learning,3.1.0,60,space,3.892,space,0.806,,0,1,0,3,0,1,2,hiragana1.xlsx,hiragana11.xlsx,hiragana12.xlsx,6,0,180,24,1,179,L,I,m,,,m,,,,,,,,,,,,,,,,,,,,,,,,,,,,,,,,
,,,,,,,,,,,,,,,,,,2019-05-27_19h32.59.952,Probabilistic Learning,3.1.0,60,,,,,,0,1,0,3,0,1,2,hiragana1.xlsx,hiragana11.xlsx,hiragana12.xlsx,6,0,180,8,1,179,A,a,m,c,,,,,,,,,,,,,,,,,,,,,,,,,,,,,,,,,,
,,,,,,,,,,,,,,,,,,2019-05-27_19h32.59.952,Probabilistic Learning,3.1.0,60,,,,,,0,1,0,3,0,1,2,hiragana1.xlsx,hiragana11.xlsx,hiragana12.xlsx,6,0,180,16,1,179,d,O,m,,m,,,,,,,,,,,,,,,,,,,,,,,,,,,,,,,,,
,,,,,,,,,,,,,,,,,,2019-05-27_19h32.59.952,Probabilistic Learning,3.1.0,60,,,,,,0,1,0,3,0,1,2,hiragana1.xlsx,hiragana11.xlsx,hiragana12.xlsx,6,0,180,6,1,179,a,A,m,m,,,,,,,,,,,,,,,,,,,,,,,,,,,,,,,,,,
,,,,,,,,,,,,,,,,,,2019-05-27_19h32.59.952,Probabilistic Learning,3.1.0,60,,,,,,0,1,0,3,0,1,2,hiragana1.xlsx,hiragana11.xlsx,hiragana12.xlsx,6,0,180,22,1,179,I,L,c,,,c,,,,,,,,,,,,,,,,,,,,,,,,,,,,,,,,
,,,,,,,,,,,,,,,,,,2019-05-27_19h32.59.952,Probabilistic Learning,3.1.0,60,,,,,,0,1,0,3,0,1,2,hiragana1.xlsx,hiragana11.xlsx,hiragana12.xlsx,6,0,180,18,1,179,d,O,c,,m,,,,,,,,,,,,,,,,,,,,,,,,,,,,,,,,,
,,,,,,,,,,,,,,,,,,2019-05-27_19h32.59.952,Probabilistic Learning,3.1.0,60,,,,,,0,1,0,3,0,1,2,hiragana1.xlsx,hiragana11.xlsx,hiragana12.xlsx,6,0,180,23,1,179,L,I,m,,,m,,,,,,,,,,,,,,,,,,,,,,,,,,,,,,,,
,,,,,,,,,,,,,,,,,,2019-05-27_19h32.59.952,Probabilistic Learning,3.1.0,60,,,,,,0,1,0,3,0,1,2,hiragana1.xlsx,hiragana11.xlsx,hiragana12.xlsx,6,0,180,27,1,179,I,L,m,,,c,,,,,,,,,,,,,,,,,,,,,,,,,,,,,,,,
,,,,,,,,,,,,,,,,,,2019-05-27_19h32.59.952,Probabilistic Learning,3.1.0,60,,,,,,0,1,0,3,0,1,2,hiragana1.xlsx,hiragana11.xlsx,hiragana12.xlsx,6,0,180,4,1,179,a,A,m,m,,,,,,,,,,,,,,,,,,,,,,,,,,,,,,,,,,
,,,,,,,,,,,,,,,,,,2019-05-27_19h32.59.952,Probabilistic Learning,3.1.0,60,,,,,,0,1,0,3,0,1,2,hiragana1.xlsx,hiragana11.xlsx,hiragana12.xlsx,6,0,180,10,1,179,O,d,c,,c,,,,,,,,,,,,,,,,,,,,,,,,,,,,,,,,,
,,,,,,,,,,,,,,,,,,2019-05-27_19h32.59.952,Probabilistic Learning,3.1.0,60,,,,,,0,1,0,3,0,1,2,hiragana1.xlsx,hiragana11.xlsx,hiragana12.xlsx,6,0,180,25,1,179,L,I,m,,,m,,,,,,,,,,,,,,,,,,,,,,,,,,,,,,,,
,,,,,,,,,,,,,,,,,,2019-05-27_19h32.59.952,Probabilistic Learning,3.1.0,60,,,,,,0,1,0,3,0,1,2,hiragana1.xlsx,hiragana11.xlsx,hiragana12.xlsx,6,0,180,12,1,179,O,d,c,,c,,,,,,,,,,,,,,,,,,,,,,,,,,,,,,,,,
,,,,,,,,,,,,,,,,,,2019-05-27_19h32.59.952,Probabilistic Learning,3.1.0,60,,,,,,0,1,0,3,0,1,2,hiragana1.xlsx,hiragana11.xlsx,hiragana12.xlsx,6,0,180,3,1,179,A,a,c,c,,,,,,,,,,,,,,,,,,,,,,,,,,,,,,,,,,
,,,,,,,,,,,,,,,,,,2019-05-27_19h32.59.952,Probabilistic Learning,3.1.0,60,,,,,,0,1,0,3,0,1,2,hiragana1.xlsx,hiragana11.xlsx,hiragana12.xlsx,6,0,180,7,1,179,a,A,m,m,,,,,,,,,,,,,,,,,,,,,,,,,,,,,,,,,,
,,,,,,,,,,,,,,,,,,2019-05-27_19h32.59.952,Probabilistic Learning,3.1.0,60,,,,,,0,1,0,3,0,1,2,hiragana1.xlsx,hiragana11.xlsx,hiragana12.xlsx,6,0,180,26,1,179,I,L,m,,,c,,,,,,,,,,,,,,,,,,,,,,,,,,,,,,,,
,,,,,,,,,,,,,,,,,,2019-05-27_19h32.59.952,Probabilistic Learning,3.1.0,60,,,,,,0,1,0,3,0,1,2,hiragana1.xlsx,hiragana11.xlsx,hiragana12.xlsx,6,0,180,28,1,179,L,I,c,,,m,,,,,,,,,,,,,,,,,,,,,,,,,,,,,,,,
,,,,,,,,,,,,,,,,,,2019-05-27_19h32.59.952,Probabilistic Learning,3.1.0,60,,,,,,0,1,0,3,0,1,2,hiragana1.xlsx,hiragana11.xlsx,hiragana12.xlsx,6,0,180,14,1,179,d,O,m,,m,,,,,,,,,,,,,,,,,,,,,,,,,,,,,,,,,
,,,,,,,,,,,,,,,,,,2019-05-27_19h32.59.952,Probabilistic Learning,3.1.0,60,,,,,,0,1,0,3,0,1,2,hiragana1.xlsx,hiragana11.xlsx,hiragana12.xlsx,6,0,180,15,1,179,d,O,m,,m,,,,,,,,,,,,,,,,,,,,,,,,,,,,,,,,,
,,,,,,,,,,,,,,,,,,2019-05-27_19h32.59.952,Probabilistic Learning,3.1.0,60,,,,,,0,1,0,3,0,1,2,hiragana1.xlsx,hiragana11.xlsx,hiragana12.xlsx,6,0,180,20,1,179,I,L,c,,,c,,,,,,,,,,,,,,,,,,,,,,,,,,,,,,,,
,,,,,,,,,,,,,,,,,,2019-05-27_19h32.59.952,Probabilistic Learning,3.1.0,60,,,,,,0,1,0,3,0,1,2,hiragana1.xlsx,hiragana11.xlsx,hiragana12.xlsx,6,0,180,19,1,179,O,d,m,,c,,,,,,,,,,,,,,,,,,,,,,,,,,,,,,,,,
,,,,,,,,,,,,,,,,,,2019-05-27_19h32.59.952,Probabilistic Learning,3.1.0,60,,,,,,0,1,0,3,0,1,2,hiragana1.xlsx,hiragana11.xlsx,hiragana12.xlsx,6,0,180,2,1,179,A,a,c,c,,,,,,,,,,,,,,,,,,,,,,,,,,,,,,,,,,
,,,,,,,,,,,,,,,,,,2019-05-27_19h32.59.952,Probabilistic Learning,3.1.0,60,,,,,,0,1,0,3,0,1,2,hiragana1.xlsx,hiragana11.xlsx,hiragana12.xlsx,6,0,180,5,1,179,a,A,m,m,,,,,,,,,,,,,,,,,,,,,,,,,,,,,,,,,,
,,,,,,,,,,,,,,,,,,2019-05-27_19h32.59.952,Probabilistic Learning,3.1.0,60,,,,,,0,1,0,3,0,1,2,hiragana1.xlsx,hiragana11.xlsx,hiragana12.xlsx,6,0,180,11,1,179,O,d,c,,c,,,,,,,,,,,,,,,,,,,,,,,,,,,,,,,,,
,,,,,,,,,,,,,,,,,,2019-05-27_19h32.59.952,Probabilistic Learning,3.1.0,60,,,,,,0,1,0,3,0,1,2,hiragana1.xlsx,hiragana11.xlsx,hiragana12.xlsx,6,0,180,13,1,179,O,d,c,,c,,,,,,,,,,,,,,,,,,,,,,,,,,,,,,,,,
,,,,,,,,,,,,,,,,,,2019-05-27_19h32.59.952,Probabilistic Learning,3.1.0,60,,,,,,0,1,0,3,0,1,2,hiragana1.xlsx,hiragana11.xlsx,hiragana12.xlsx,6,0,180,21,1,179,I,L,c,,,c,,,,,,,,,,,,,,,,,,,,,,,,,,,,,,,,
,,,,,,,,,,,,,,,,,,2019-05-27_19h32.59.952,Probabilistic Learning,3.1.0,60,,,,,,0,1,0,3,0,1,2,hiragana1.xlsx,hiragana11.xlsx,hiragana12.xlsx,6,0,180,9,1,179,a,A,c,m,,,,,,,,,,,,,,,,,,,,,,,,,,,,,,,,,,
,,,,,,,,,,,,,,,,,,2019-05-27_19h32.59.952,Probabilistic Learning,3.1.0,60,,,,,,0,1,0,3,0,1,2,hiragana1.xlsx,hiragana11.xlsx,hiragana12.xlsx,6,0,180,0,1,179,A,a,c,c,,,,,,,,,,,,,,,,,,,,,,,,,,,,,,,,,,
,,,,,,,,,,,,,,,,,,2019-05-27_19h32.59.952,Probabilistic Learning,3.1.0,60,,,,,,0,1,0,3,0,1,2,hiragana1.xlsx,hiragana11.xlsx,hiragana12.xlsx,6,0,180,17,1,179,d,O,c,,m,,,,,,,,,,,,,,,,,,,,,,,,,,,,,,,,,
,,,,,,,,,,,,,,,,,,2019-05-27_19h32.59.952,Probabilistic Learning,3.1.0,60,,,,,,0,1,0,3,0,1,2,hiragana1.xlsx,hiragana11.xlsx,hiragana12.xlsx,6,0,180,1,1,179,A,a,c,c,,,,,,,,,,,,,,,,,,,,,,,,,,,,,,,,,,
,,,,,,,,,,,,,,,,,,2019-05-27_19h32.59.952,Probabilistic Learning,3.1.0,60,,,,,,0,1,0,3,0,1,2,hiragana1.xlsx,hiragana11.xlsx,hiragana12.xlsx,6,0,180,29,1,179,L,I,c,,,m,,,,,,,,,,,,,,,,,,,,,,,,,,,,,,,,
,,,,,,,,,,,,,,,,,,2019-05-27_19h32.59.952,Probabilistic Learning,3.1.0,60,,,,,,0,1,0,3,0,1,2,hiragana1.xlsx,hiragana11.xlsx,hiragana12.xlsx,6,0,180,9,1,179,a,A,c,m,,,,,,,,,,,,,,,,,,,,,,,,,,,,,,,,,,
,,,,,,,,,,,,,,,,,,2019-05-27_19h32.59.952,Probabilistic Learning,3.1.0,60,,,,,,0,1,0,3,0,1,2,hiragana1.xlsx,hiragana11.xlsx,hiragana12.xlsx,6,0,180,2,1,179,A,a,c,c,,,,,,,,,,,,,,,,,,,,,,,,,,,,,,,,,,
,,,,,,,,,,,,,,,,,,2019-05-27_19h32.59.952,Probabilistic Learning,3.1.0,60,,,,,,0,1,0,3,0,1,2,hiragana1.xlsx,hiragana11.xlsx,hiragana12.xlsx,6,0,180,18,1,179,d,O,c,,m,,,,,,,,,,,,,,,,,,,,,,,,,,,,,,,,,
,,,,,,,,,,,,,,,,,,2019-05-27_19h32.59.952,Probabilistic Learning,3.1.0,60,,,,,,0,1,0,3,0,1,2,hiragana1.xlsx,hiragana11.xlsx,hiragana12.xlsx,6,0,180,0,1,179,A,a,c,c,,,,,,,,,,,,,,,,,,,,,,,,,,,,,,,,,,
,,,,,,,,,,,,,,,,,,2019-05-27_19h32.59.952,Probabilistic Learning,3.1.0,60,,,,,,0,1,0,3,0,1,2,hiragana1.xlsx,hiragana11.xlsx,hiragana12.xlsx,6,0,180,5,1,179,a,A,m,m,,,,,,,,,,,,,,,,,,,,,,,,,,,,,,,,,,
,,,,,,,,,,,,,,,,,,2019-05-27_19h32.59.952,Probabilistic Learning,3.1.0,60,,,,,,0,1,0,3,0,1,2,hiragana1.xlsx,hiragana11.xlsx,hiragana12.xlsx,6,0,180,24,1,179,L,I,m,,,m,,,,,,,,,,,,,,,,,,,,,,,,,,,,,,,,
,,,,,,,,,,,,,,,,,,2019-05-27_19h32.59.952,Probabilistic Learning,3.1.0,60,,,,,,0,1,0,3,0,1,2,hiragana1.xlsx,hiragana11.xlsx,hiragana12.xlsx,6,0,180,3,1,179,A,a,c,c,,,,,,,,,,,,,,,,,,,,,,,,,,,,,,,,,,
,,,,,,,,,,,,,,,,,,2019-05-27_19h32.59.952,Probabilistic Learning,3.1.0,60,,,,,,0,1,0,3,0,1,2,hiragana1.xlsx,hiragana11.xlsx,hiragana12.xlsx,6,0,180,25,1,179,L,I,m,,,m,,,,,,,,,,,,,,,,,,,,,,,,,,,,,,,,
,,,,,,,,,,,,,,,,,,2019-05-27_19h32.59.952,Probabilistic Learning,3.1.0,60,,,,,,0,1,0,3,0,1,2,hiragana1.xlsx,hiragana11.xlsx,hiragana12.xlsx,6,0,180,26,1,179,I,L,m,,,c,,,,,,,,,,,,,,,,,,,,,,,,,,,,,,,,
,,,,,,,,,,,,,,,,,,2019-05-27_19h32.59.952,Probabilistic Learning,3.1.0,60,,,,,,0,1,0,3,0,1,2,hiragana1.xlsx,hiragana11.xlsx,hiragana12.xlsx,6,0,180,4,1,179,a,A,m,m,,,,,,,,,,,,,,,,,,,,,,,,,,,,,,,,,,
,,,,,,,,,,,,,,,,,,2019-05-27_19h32.59.952,Probabilistic Learning,3.1.0,60,,,,,,0,1,0,3,0,1,2,hiragana1.xlsx,hiragana11.xlsx,hiragana12.xlsx,6,0,180,29,1,179,L,I,c,,,m,,,,,,,,,,,,,,,,,,,,,,,,,,,,,,,,
,,,,,,,,,,,,,,,,,,2019-05-27_19h32.59.952,Probabilistic Learning,3.1.0,60,,,,,,0,1,0,3,0,1,2,hiragana1.xlsx,hiragana11.xlsx,hiragana12.xlsx,6,0,180,16,1,179,d,O,m,,m,,,,,,,,,,,,,,,,,,,,,,,,,,,,,,,,,
,,,,,,,,,,,,,,,,,,2019-05-27_19h32.59.952,Probabilistic Learning,3.1.0,60,,,,,,0,1,0,3,0,1,2,hiragana1.xlsx,hiragana11.xlsx,hiragana12.xlsx,6,0,180,17,1,179,d,O,c,,m,,,,,,,,,,,,,,,,,,,,,,,,,,,,,,,,,
,,,,,,,,,,,,,,,,,,2019-05-27_19h32.59.952,Probabilistic Learning,3.1.0,60,,,,,,0,1,0,3,0,1,2,hiragana1.xlsx,hiragana11.xlsx,hiragana12.xlsx,6,0,180,8,1,179,A,a,m,c,,,,,,,,,,,,,,,,,,,,,,,,,,,,,,,,,,
,,,,,,,,,,,,,,,,,,2019-05-27_19h32.59.952,Probabilistic Learning,3.1.0,60,,,,,,0,1,0,3,0,1,2,hiragana1.xlsx,hiragana11.xlsx,hiragana12.xlsx,6,0,180,21,1,179,I,L,c,,,c,,,,,,,,,,,,,,,,,,,,,,,,,,,,,,,,
,,,,,,,,,,,,,,,,,,2019-05-27_19h32.59.952,Probabilistic Learning,3.1.0,60,,,,,,0,1,0,3,0,1,2,hiragana1.xlsx,hiragana11.xlsx,hiragana12.xlsx,6,0,180,23,1,179,L,I,m,,,m,,,,,,,,,,,,,,,,,,,,,,,,,,,,,,,,
,,,,,,,,,,,,,,,,,,2019-05-27_19h32.59.952,Probabilistic Learning,3.1.0,60,,,,,,0,1,0,3,0,1,2,hiragana1.xlsx,hiragana11.xlsx,hiragana12.xlsx,6,0,180,6,1,179,a,A,m,m,,,,,,,,,,,,,,,,,,,,,,,,,,,,,,,,,,
,,,,,,,,,,,,,,,,,,2019-05-27_19h32.59.952,Probabilistic Learning,3.1.0,60,,,,,,0,1,0,3,0,1,2,hiragana1.xlsx,hiragana11.xlsx,hiragana12.xlsx,6,0,180,27,1,179,I,L,m,,,c,,,,,,,,,,,,,,,,,,,,,,,,,,,,,,,,
,,,,,,,,,,,,,,,,,,2019-05-27_19h32.59.952,Probabilistic Learning,3.1.0,60,,,,,,0,1,0,3,0,1,2,hiragana1.xlsx,hiragana11.xlsx,hiragana12.xlsx,6,0,180,1,1,179,A,a,c,c,,,,,,,,,,,,,,,,,,,,,,,,,,,,,,,,,,
,,,,,,,,,,,,,,,,,,2019-05-27_19h32.59.952,Probabilistic Learning,3.1.0,60,,,,,,0,1,0,3,0,1,2,hiragana1.xlsx,hiragana11.xlsx,hiragana12.xlsx,6,0,180,15,1,179,d,O,m,,m,,,,,,,,,,,,,,,,,,,,,,,,,,,,,,,,,
,,,,,,,,,,,,,,,,,,2019-05-27_19h32.59.952,Probabilistic Learning,3.1.0,60,,,,,,0,1,0,3,0,1,2,hiragana1.xlsx,hiragana11.xlsx,hiragana12.xlsx,6,0,180,11,1,179,O,d,c,,c,,,,,,,,,,,,,,,,,,,,,,,,,,,,,,,,,
,,,,,,,,,,,,,,,,,,2019-05-27_19h32.59.952,Probabilistic Learning,3.1.0,60,,,,,,0,1,0,3,0,1,2,hiragana1.xlsx,hiragana11.xlsx,hiragana12.xlsx,6,0,180,19,1,179,O,d,m,,c,,,,,,,,,,,,,,,,,,,,,,,,,,,,,,,,,
,,,,,,,,,,,,,,,,,,2019-05-27_19h32.59.952,Probabilistic Learning,3.1.0,60,,,,,,0,1,0,3,0,1,2,hiragana1.xlsx,hiragana11.xlsx,hiragana12.xlsx,6,0,180,20,1,179,I,L,c,,,c,,,,,,,,,,,,,,,,,,,,,,,,,,,,,,,,
,,,,,,,,,,,,,,,,,,2019-05-27_19h32.59.952,Probabilistic Learning,3.1.0,60,,,,,,0,1,0,3,0,1,2,hiragana1.xlsx,hiragana11.xlsx,hiragana12.xlsx,6,0,180,28,1,179,L,I,c,,,m,,,,,,,,,,,,,,,,,,,,,,,,,,,,,,,,
,,,,,,,,,,,,,,,,,,2019-05-27_19h32.59.952,Probabilistic Learning,3.1.0,60,,,,,,0,1,0,3,0,1,2,hiragana1.xlsx,hiragana11.xlsx,hiragana12.xlsx,6,0,180,22,1,179,I,L,c,,,c,,,,,,,,,,,,,,,,,,,,,,,,,,,,,,,,
,,,,,,,,,,,,,,,,,,2019-05-27_19h32.59.952,Probabilistic Learning,3.1.0,60,,,,,,0,1,0,3,0,1,2,hiragana1.xlsx,hiragana11.xlsx,hiragana12.xlsx,6,0,180,14,1,179,d,O,m,,m,,,,,,,,,,,,,,,,,,,,,,,,,,,,,,,,,
,,,,,,,,,,,,,,,,,,2019-05-27_19h32.59.952,Probabilistic Learning,3.1.0,60,,,,,,0,1,0,3,0,1,2,hiragana1.xlsx,hiragana11.xlsx,hiragana12.xlsx,6,0,180,12,1,179,O,d,c,,c,,,,,,,,,,,,,,,,,,,,,,,,,,,,,,,,,
,,,,,,,,,,,,,,,,,,2019-05-27_19h32.59.952,Probabilistic Learning,3.1.0,60,,,,,,0,1,0,3,0,1,2,hiragana1.xlsx,hiragana11.xlsx,hiragana12.xlsx,6,0,180,7,1,179,a,A,m,m,,,,,,,,,,,,,,,,,,,,,,,,,,,,,,,,,,
,,,,,,,,,,,,,,,,,,2019-05-27_19h32.59.952,Probabilistic Learning,3.1.0,60,,,,,,0,1,0,3,0,1,2,hiragana1.xlsx,hiragana11.xlsx,hiragana12.xlsx,6,0,180,10,1,179,O,d,c,,c,,,,,,,,,,,,,,,,,,,,,,,,,,,,,,,,,
,,,,,,,,,,,,,,,,,,2019-05-27_19h32.59.952,Probabilistic Learning,3.1.0,60,,,,,,0,1,0,3,0,1,2,hiragana1.xlsx,hiragana11.xlsx,hiragana12.xlsx,6,0,180,13,1,179,O,d,c,,c,,,,,,,,,,,,,,,,,,,,,,,,,,,,,,,,,
,,,,,,,,,,,,,,,,,,2019-05-27_19h32.59.952,Probabilistic Learning,3.1.0,60,,,,,,0,1,0,3,0,1,2,hiragana1.xlsx,hiragana11.xlsx,hiragana12.xlsx,6,0,180,23,1,179,L,I,m,,,m,,,,,,,,,,,,,,,,,,,,,,,,,,,,,,,,
,,,,,,,,,,,,,,,,,,2019-05-27_19h32.59.952,Probabilistic Learning,3.1.0,60,,,,,,0,1,0,3,0,1,2,hiragana1.xlsx,hiragana11.xlsx,hiragana12.xlsx,6,0,180,7,1,179,a,A,m,m,,,,,,,,,,,,,,,,,,,,,,,,,,,,,,,,,,
,,,,,,,,,,,,,,,,,,2019-05-27_19h32.59.952,Probabilistic Learning,3.1.0,60,,,,,,0,1,0,3,0,1,2,hiragana1.xlsx,hiragana11.xlsx,hiragana12.xlsx,6,0,180,5,1,179,a,A,m,m,,,,,,,,,,,,,,,,,,,,,,,,,,,,,,,,,,
,,,,,,,,,,,,,,,,,,2019-05-27_19h32.59.952,Probabilistic Learning,3.1.0,60,,,,,,0,1,0,3,0,1,2,hiragana1.xlsx,hiragana11.xlsx,hiragana12.xlsx,6,0,180,25,1,179,L,I,m,,,m,,,,,,,,,,,,,,,,,,,,,,,,,,,,,,,,
,,,,,,,,,,,,,,,,,,2019-05-27_19h32.59.952,Probabilistic Learning,3.1.0,60,,,,,,0,1,0,3,0,1,2,hiragana1.xlsx,hiragana11.xlsx,hiragana12.xlsx,6,0,180,3,1,179,A,a,c,c,,,,,,,,,,,,,,,,,,,,,,,,,,,,,,,,,,
,,,,,,,,,,,,,,,,,,2019-05-27_19h32.59.952,Probabilistic Learning,3.1.0,60,,,,,,0,1,0,3,0,1,2,hiragana1.xlsx,hiragana11.xlsx,hiragana12.xlsx,6,0,180,9,1,179,a,A,c,m,,,,,,,,,,,,,,,,,,,,,,,,,,,,,,,,,,
,,,,,,,,,,,,,,,,,,2019-05-27_19h32.59.952,Probabilistic Learning,3.1.0,60,,,,,,0,1,0,3,0,1,2,hiragana1.xlsx,hiragana11.xlsx,hiragana12.xlsx,6,0,180,18,1,179,d,O,c,,m,,,,,,,,,,,,,,,,,,,,,,,,,,,,,,,,,
,,,,,,,,,,,,,,,,,,2019-05-27_19h32.59.952,Probabilistic Learning,3.1.0,60,,,,,,0,1,0,3,0,1,2,hiragana1.xlsx,hiragana11.xlsx,hiragana12.xlsx,6,0,180,21,1,179,I,L,c,,,c,,,,,,,,,,,,,,,,,,,,,,,,,,,,,,,,
,,,,,,,,,,,,,,,,,,2019-05-27_19h32.59.952,Probabilistic Learning,3.1.0,60,,,,,,0,1,0,3,0,1,2,hiragana1.xlsx,hiragana11.xlsx,hiragana12.xlsx,6,0,180,13,1,179,O,d,c,,c,,,,,,,,,,,,,,,,,,,,,,,,,,,,,,,,,
,,,,,,,,,,,,,,,,,,2019-05-27_19h32.59.952,Probabilistic Learning,3.1.0,60,,,,,,0,1,0,3,0,1,2,hiragana1.xlsx,hiragana11.xlsx,hiragana12.xlsx,6,0,180,4,1,179,a,A,m,m,,,,,,,,,,,,,,,,,,,,,,,,,,,,,,,,,,
,,,,,,,,,,,,,,,,,,2019-05-27_19h32.59.952,Probabilistic Learning,3.1.0,60,,,,,,0,1,0,3,0,1,2,hiragana1.xlsx,hiragana11.xlsx,hiragana12.xlsx,6,0,180,20,1,179,I,L,c,,,c,,,,,,,,,,,,,,,,,,,,,,,,,,,,,,,,
,,,,,,,,,,,,,,,,,,2019-05-27_19h32.59.952,Probabilistic Learning,3.1.0,60,,,,,,0,1,0,3,0,1,2,hiragana1.xlsx,hiragana11.xlsx,hiragana12.xlsx,6,0,180,28,1,179,L,I,c,,,m,,,,,,,,,,,,,,,,,,,,,,,,,,,,,,,,
,,,,,,,,,,,,,,,,,,2019-05-27_19h32.59.952,Probabilistic Learning,3.1.0,60,,,,,,0,1,0,3,0,1,2,hiragana1.xlsx,hiragana11.xlsx,hiragana12.xlsx,6,0,180,29,1,179,L,I,c,,,m,,,,,,,,,,,,,,,,,,,,,,,,,,,,,,,,
,,,,,,,,,,,,,,,,,,2019-05-27_19h32.59.952,Probabilistic Learning,3.1.0,60,,,,,,0,1,0,3,0,1,2,hiragana1.xlsx,hiragana11.xlsx,hiragana12.xlsx,6,0,180,17,1,179,d,O,c,,m,,,,,,,,,,,,,,,,,,,,,,,,,,,,,,,,,
,,,,,,,,,,,,,,,,,,2019-05-27_19h32.59.952,Probabilistic Learning,3.1.0,60,,,,,,0,1,0,3,0,1,2,hiragana1.xlsx,hiragana11.xlsx,hiragana12.xlsx,6,0,180,6,1,179,a,A,m,m,,,,,,,,,,,,,,,,,,,,,,,,,,,,,,,,,,
,,,,,,,,,,,,,,,,,,2019-05-27_19h32.59.952,Probabilistic Learning,3.1.0,60,,,,,,0,1,0,3,0,1,2,hiragana1.xlsx,hiragana11.xlsx,hiragana12.xlsx,6,0,180,10,1,179,O,d,c,,c,,,,,,,,,,,,,,,,,,,,,,,,,,,,,,,,,
,,,,,,,,,,,,,,,,,,2019-05-27_19h32.59.952,Probabilistic Learning,3.1.0,60,,,,,,0,1,0,3,0,1,2,hiragana1.xlsx,hiragana11.xlsx,hiragana12.xlsx,6,0,180,15,1,179,d,O,m,,m,,,,,,,,,,,,,,,,,,,,,,,,,,,,,,,,,
,,,,,,,,,,,,,,,,,,2019-05-27_19h32.59.952,Probabilistic Learning,3.1.0,60,,,,,,0,1,0,3,0,1,2,hiragana1.xlsx,hiragana11.xlsx,hiragana12.xlsx,6,0,180,2,1,179,A,a,c,c,,,,,,,,,,,,,,,,,,,,,,,,,,,,,,,,,,
,,,,,,,,,,,,,,,,,,2019-05-27_19h32.59.952,Probabilistic Learning,3.1.0,60,,,,,,0,1,0,3,0,1,2,hiragana1.xlsx,hiragana11.xlsx,hiragana12.xlsx,6,0,180,12,1,179,O,d,c,,c,,,,,,,,,,,,,,,,,,,,,,,,,,,,,,,,,
,,,,,,,,,,,,,,,,,,2019-05-27_19h32.59.952,Probabilistic Learning,3.1.0,60,,,,,,0,1,0,3,0,1,2,hiragana1.xlsx,hiragana11.xlsx,hiragana12.xlsx,6,0,180,11,1,179,O,d,c,,c,,,,,,,,,,,,,,,,,,,,,,,,,,,,,,,,,
,,,,,,,,,,,,,,,,,,2019-05-27_19h32.59.952,Probabilistic Learning,3.1.0,60,,,,,,0,1,0,3,0,1,2,hiragana1.xlsx,hiragana11.xlsx,hiragana12.xlsx,6,0,180,27,1,179,I,L,m,,,c,,,,,,,,,,,,,,,,,,,,,,,,,,,,,,,,
,,,,,,,,,,,,,,,,,,2019-05-27_19h32.59.952,Probabilistic Learning,3.1.0,60,,,,,,0,1,0,3,0,1,2,hiragana1.xlsx,hiragana11.xlsx,hiragana12.xlsx,6,0,180,26,1,179,I,L,m,,,c,,,,,,,,,,,,,,,,,,,,,,,,,,,,,,,,
,,,,,,,,,,,,,,,,,,2019-05-27_19h32.59.952,Probabilistic Learning,3.1.0,60,,,,,,0,1,0,3,0,1,2,hiragana1.xlsx,hiragana11.xlsx,hiragana12.xlsx,6,0,180,22,1,179,I,L,c,,,c,,,,,,,,,,,,,,,,,,,,,,,,,,,,,,,,
,,,,,,,,,,,,,,,,,,2019-05-27_19h32.59.952,Probabilistic Learning,3.1.0,60,,,,,,0,1,0,3,0,1,2,hiragana1.xlsx,hiragana11.xlsx,hiragana12.xlsx,6,0,180,1,1,179,A,a,c,c,,,,,,,,,,,,,,,,,,,,,,,,,,,,,,,,,,
,,,,,,,,,,,,,,,,,,2019-05-27_19h32.59.952,Probabilistic Learning,3.1.0,60,,,,,,0,1,0,3,0,1,2,hiragana1.xlsx,hiragana11.xlsx,hiragana12.xlsx,6,0,180,8,1,179,A,a,m,c,,,,,,,,,,,,,,,,,,,,,,,,,,,,,,,,,,
,,,,,,,,,,,,,,,,,,2019-05-27_19h32.59.952,Probabilistic Learning,3.1.0,60,,,,,,0,1,0,3,0,1,2,hiragana1.xlsx,hiragana11.xlsx,hiragana12.xlsx,6,0,180,0,1,179,A,a,c,c,,,,,,,,,,,,,,,,,,,,,,,,,,,,,,,,,,
,,,,,,,,,,,,,,,,,,2019-05-27_19h32.59.952,Probabilistic Learning,3.1.0,60,,,,,,0,1,0,3,0,1,2,hiragana1.xlsx,hiragana11.xlsx,hiragana12.xlsx,6,0,180,16,1,179,d,O,m,,m,,,,,,,,,,,,,,,,,,,,,,,,,,,,,,,,,
,,,,,,,,,,,,,,,,,,2019-05-27_19h32.59.952,Probabilistic Learning,3.1.0,60,,,,,,0,1,0,3,0,1,2,hiragana1.xlsx,hiragana11.xlsx,hiragana12.xlsx,6,0,180,19,1,179,O,d,m,,c,,,,,,,,,,,,,,,,,,,,,,,,,,,,,,,,,
,,,,,,,,,,,,,,,,,,2019-05-27_19h32.59.952,Probabilistic Learning,3.1.0,60,,,,,,0,1,0,3,0,1,2,hiragana1.xlsx,hiragana11.xlsx,hiragana12.xlsx,6,0,180,24,1,179,L,I,m,,,m,,,,,,,,,,,,,,,,,,,,,,,,,,,,,,,,
,,,,,,,,,,,,,,,,,,2019-05-27_19h32.59.952,Probabilistic Learning,3.1.0,60,,,,,,0,1,0,3,0,1,2,hiragana1.xlsx,hiragana11.xlsx,hiragana12.xlsx,6,0,180,14,1,179,d,O,m,,m,,,,,,,,,,,,,,,,,,,,,,,,,,,,,,,,,
,,,,,,,,,,,,,,,,,,2019-05-27_19h32.59.952,Probabilistic Learning,3.1.0,60,,,,,,0,1,0,3,0,1,2,hiragana1.xlsx,hiragana11.xlsx,hiragana12.xlsx,6,0,180,12,1,179,O,d,c,,c,,,,,,,,,,,,,,,,,,,,,,,,,,,,,,,,,
,,,,,,,,,,,,,,,,,,2019-05-27_19h32.59.952,Probabilistic Learning,3.1.0,60,,,,,,0,1,0,3,0,1,2,hiragana1.xlsx,hiragana11.xlsx,hiragana12.xlsx,6,0,180,5,1,179,a,A,m,m,,,,,,,,,,,,,,,,,,,,,,,,,,,,,,,,,,
,,,,,,,,,,,,,,,,,,2019-05-27_19h32.59.952,Probabilistic Learning,3.1.0,60,,,,,,0,1,0,3,0,1,2,hiragana1.xlsx,hiragana11.xlsx,hiragana12.xlsx,6,0,180,25,1,179,L,I,m,,,m,,,,,,,,,,,,,,,,,,,,,,,,,,,,,,,,
,,,,,,,,,,,,,,,,,,2019-05-27_19h32.59.952,Probabilistic Learning,3.1.0,60,,,,,,0,1,0,3,0,1,2,hiragana1.xlsx,hiragana11.xlsx,hiragana12.xlsx,6,0,180,29,1,179,L,I,c,,,m,,,,,,,,,,,,,,,,,,,,,,,,,,,,,,,,
,,,,,,,,,,,,,,,,,,2019-05-27_19h32.59.952,Probabilistic Learning,3.1.0,60,,,,,,0,1,0,3,0,1,2,hiragana1.xlsx,hiragana11.xlsx,hiragana12.xlsx,6,0,180,9,1,179,a,A,c,m,,,,,,,,,,,,,,,,,,,,,,,,,,,,,,,,,,
,,,,,,,,,,,,,,,,,,2019-05-27_19h32.59.952,Probabilistic Learning,3.1.0,60,,,,,,0,1,0,3,0,1,2,hiragana1.xlsx,hiragana11.xlsx,hiragana12.xlsx,6,0,180,17,1,179,d,O,c,,m,,,,,,,,,,,,,,,,,,,,,,,,,,,,,,,,,
,,,,,,,,,,,,,,,,,,2019-05-27_19h32.59.952,Probabilistic Learning,3.1.0,60,,,,,,0,1,0,3,0,1,2,hiragana1.xlsx,hiragana11.xlsx,hiragana12.xlsx,6,0,180,20,1,179,I,L,c,,,c,,,,,,,,,,,,,,,,,,,,,,,,,,,,,,,,
,,,,,,,,,,,,,,,,,,2019-05-27_19h32.59.952,Probabilistic Learning,3.1.0,60,,,,,,0,1,0,3,0,1,2,hiragana1.xlsx,hiragana11.xlsx,hiragana12.xlsx,6,0,180,21,1,179,I,L,c,,,c,,,,,,,,,,,,,,,,,,,,,,,,,,,,,,,,
,,,,,,,,,,,,,,,,,,2019-05-27_19h32.59.952,Probabilistic Learning,3.1.0,60,,,,,,0,1,0,3,0,1,2,hiragana1.xlsx,hiragana11.xlsx,hiragana12.xlsx,6,0,180,26,1,179,I,L,m,,,c,,,,,,,,,,,,,,,,,,,,,,,,,,,,,,,,
,,,,,,,,,,,,,,,,,,2019-05-27_19h32.59.952,Probabilistic Learning,3.1.0,60,,,,,,0,1,0,3,0,1,2,hiragana1.xlsx,hiragana11.xlsx,hiragana12.xlsx,6,0,180,15,1,179,d,O,m,,m,,,,,,,,,,,,,,,,,,,,,,,,,,,,,,,,,
,,,,,,,,,,,,,,,,,,2019-05-27_19h32.59.952,Probabilistic Learning,3.1.0,60,,,,,,0,1,0,3,0,1,2,hiragana1.xlsx,hiragana11.xlsx,hiragana12.xlsx,6,0,180,28,1,179,L,I,c,,,m,,,,,,,,,,,,,,,,,,,,,,,,,,,,,,,,
,,,,,,,,,,,,,,,,,,2019-05-27_19h32.59.952,Probabilistic Learning,3.1.0,60,,,,,,0,1,0,3,0,1,2,hiragana1.xlsx,hiragana11.xlsx,hiragana12.xlsx,6,0,180,3,1,179,A,a,c,c,,,,,,,,,,,,,,,,,,,,,,,,,,,,,,,,,,
,,,,,,,,,,,,,,,,,,2019-05-27_19h32.59.952,Probabilistic Learning,3.1.0,60,,,,,,0,1,0,3,0,1,2,hiragana1.xlsx,hiragana11.xlsx,hiragana12.xlsx,6,0,180,2,1,179,A,a,c,c,,,,,,,,,,,,,,,,,,,,,,,,,,,,,,,,,,
,,,,,,,,,,,,,,,,,,2019-05-27_19h32.59.952,Probabilistic Learning,3.1.0,60,,,,,,0,1,0,3,0,1,2,hiragana1.xlsx,hiragana11.xlsx,hiragana12.xlsx,6,0,180,11,1,179,O,d,c,,c,,,,,,,,,,,,,,,,,,,,,,,,,,,,,,,,,
,,,,,,,,,,,,,,,,,,2019-05-27_19h32.59.952,Probabilistic Learning,3.1.0,60,,,,,,0,1,0,3,0,1,2,hiragana1.xlsx,hiragana11.xlsx,hiragana12.xlsx,6,0,180,0,1,179,A,a,c,c,,,,,,,,,,,,,,,,,,,,,,,,,,,,,,,,,,
,,,,,,,,,,,,,,,,,,2019-05-27_19h32.59.952,Probabilistic Learning,3.1.0,60,,,,,,0,1,0,3,0,1,2,hiragana1.xlsx,hiragana11.xlsx,hiragana12.xlsx,6,0,180,10,1,179,O,d,c,,c,,,,,,,,,,,,,,,,,,,,,,,,,,,,,,,,,
,,,,,,,,,,,,,,,,,,2019-05-27_19h32.59.952,Probabilistic Learning,3.1.0,60,,,,,,0,1,0,3,0,1,2,hiragana1.xlsx,hiragana11.xlsx,hiragana12.xlsx,6,0,180,4,1,179,a,A,m,m,,,,,,,,,,,,,,,,,,,,,,,,,,,,,,,,,,
,,,,,,,,,,,,,,,,,,2019-05-27_19h32.59.952,Probabilistic Learning,3.1.0,60,,,,,,0,1,0,3,0,1,2,hiragana1.xlsx,hiragana11.xlsx,hiragana12.xlsx,6,0,180,14,1,179,d,O,m,,m,,,,,,,,,,,,,,,,,,,,,,,,,,,,,,,,,
,,,,,,,,,,,,,,,,,,2019-05-27_19h32.59.952,Probabilistic Learning,3.1.0,60,,,,,,0,1,0,3,0,1,2,hiragana1.xlsx,hiragana11.xlsx,hiragana12.xlsx,6,0,180,23,1,179,L,I,m,,,m,,,,,,,,,,,,,,,,,,,,,,,,,,,,,,,,
,,,,,,,,,,,,,,,,,,2019-05-27_19h32.59.952,Probabilistic Learning,3.1.0,60,,,,,,0,1,0,3,0,1,2,hiragana1.xlsx,hiragana11.xlsx,hiragana12.xlsx,6,0,180,13,1,179,O,d,c,,c,,,,,,,,,,,,,,,,,,,,,,,,,,,,,,,,,
,,,,,,,,,,,,,,,,,,2019-05-27_19h32.59.952,Probabilistic Learning,3.1.0,60,,,,,,0,1,0,3,0,1,2,hiragana1.xlsx,hiragana11.xlsx,hiragana12.xlsx,6,0,180,16,1,179,d,O,m,,m,,,,,,,,,,,,,,,,,,,,,,,,,,,,,,,,,
,,,,,,,,,,,,,,,,,,2019-05-27_19h32.59.952,Probabilistic Learning,3.1.0,60,,,,,,0,1,0,3,0,1,2,hiragana1.xlsx,hiragana11.xlsx,hiragana12.xlsx,6,0,180,19,1,179,O,d,m,,c,,,,,,,,,,,,,,,,,,,,,,,,,,,,,,,,,
,,,,,,,,,,,,,,,,,,2019-05-27_19h32.59.952,Probabilistic Learning,3.1.0,60,,,,,,0,1,0,3,0,1,2,hiragana1.xlsx,hiragana11.xlsx,hiragana12.xlsx,6,0,180,27,1,179,I,L,m,,,c,,,,,,,,,,,,,,,,,,,,,,,,,,,,,,,,
,,,,,,,,,,,,,,,,,,2019-05-27_19h32.59.952,Probabilistic Learning,3.1.0,60,,,,,,0,1,0,3,0,1,2,hiragana1.xlsx,hiragana11.xlsx,hiragana12.xlsx,6,0,180,24,1,179,L,I,m,,,m,,,,,,,,,,,,,,,,,,,,,,,,,,,,,,,,
,,,,,,,,,,,,,,,,,,2019-05-27_19h32.59.952,Probabilistic Learning,3.1.0,60,,,,,,0,1,0,3,0,1,2,hiragana1.xlsx,hiragana11.xlsx,hiragana12.xlsx,6,0,180,8,1,179,A,a,m,c,,,,,,,,,,,,,,,,,,,,,,,,,,,,,,,,,,
,,,,,,,,,,,,,,,,,,2019-05-27_19h32.59.952,Probabilistic Learning,3.1.0,60,,,,,,0,1,0,3,0,1,2,hiragana1.xlsx,hiragana11.xlsx,hiragana12.xlsx,6,0,180,7,1,179,a,A,m,m,,,,,,,,,,,,,,,,,,,,,,,,,,,,,,,,,,
,,,,,,,,,,,,,,,,,,2019-05-27_19h32.59.952,Probabilistic Learning,3.1.0,60,,,,,,0,1,0,3,0,1,2,hiragana1.xlsx,hiragana11.xlsx,hiragana12.xlsx,6,0,180,1,1,179,A,a,c,c,,,,,,,,,,,,,,,,,,,,,,,,,,,,,,,,,,
,,,,,,,,,,,,,,,,,,2019-05-27_19h32.59.952,Probabilistic Learning,3.1.0,60,,,,,,0,1,0,3,0,1,2,hiragana1.xlsx,hiragana11.xlsx,hiragana12.xlsx,6,0,180,18,1,179,d,O,c,,m,,,,,,,,,,,,,,,,,,,,,,,,,,,,,,,,,
,,,,,,,,,,,,,,,,,,2019-05-27_19h32.59.952,Probabilistic Learning,3.1.0,60,,,,,,0,1,0,3,0,1,2,hiragana1.xlsx,hiragana11.xlsx,hiragana12.xlsx,6,0,180,22,1,179,I,L,c,,,c,,,,,,,,,,,,,,,,,,,,,,,,,,,,,,,,
,,,,,,,,,,,,,,,,,,2019-05-27_19h32.59.952,Probabilistic Learning,3.1.0,60,,,,,,0,1,0,3,0,1,2,hiragana1.xlsx,hiragana11.xlsx,hiragana12.xlsx,6,0,180,6,1,179,a,A,m,m,,,,,,,,,,,,,,,,,,,,,,,,,,,,,,,,,,
,,,,,,,,,,,,,,,,,,2019-05-27_19h32.59.952,Probabilistic Learning,3.1.0,60,,,,,,0,1,0,3,0,1,2,hiragana1.xlsx,hiragana11.xlsx,hiragana12.xlsx,6,0,180,9,1,179,a,A,c,m,,,,,,,,,,,,,,,,,,,,,,,,,,,,,,,,,,
,,,,,,,,,,,,,,,,,,2019-05-27_19h32.59.952,Probabilistic Learning,3.1.0,60,,,,,,0,1,0,3,0,1,2,hiragana1.xlsx,hiragana11.xlsx,hiragana12.xlsx,6,0,180,29,1,179,L,I,c,,,m,,,,,,,,,,,,,,,,,,,,,,,,,,,,,,,,
,,,,,,,,,,,,,,,,,,2019-05-27_19h32.59.952,Probabilistic Learning,3.1.0,60,,,,,,0,1,0,3,0,1,2,hiragana1.xlsx,hiragana11.xlsx,hiragana12.xlsx,6,0,180,2,1,179,A,a,c,c,,,,,,,,,,,,,,,,,,,,,,,,,,,,,,,,,,
,,,,,,,,,,,,,,,,,,2019-05-27_19h32.59.952,Probabilistic Learning,3.1.0,60,,,,,,0,1,0,3,0,1,2,hiragana1.xlsx,hiragana11.xlsx,hiragana12.xlsx,6,0,180,8,1,179,A,a,m,c,,,,,,,,,,,,,,,,,,,,,,,,,,,,,,,,,,
,,,,,,,,,,,,,,,,,,2019-05-27_19h32.59.952,Probabilistic Learning,3.1.0,60,,,,,,0,1,0,3,0,1,2,hiragana1.xlsx,hiragana11.xlsx,hiragana12.xlsx,6,0,180,12,1,179,O,d,c,,c,,,,,,,,,,,,,,,,,,,,,,,,,,,,,,,,,
,,,,,,,,,,,,,,,,,,2019-05-27_19h32.59.952,Probabilistic Learning,3.1.0,60,,,,,,0,1,0,3,0,1,2,hiragana1.xlsx,hiragana11.xlsx,hiragana12.xlsx,6,0,180,23,1,179,L,I,m,,,m,,,,,,,,,,,,,,,,,,,,,,,,,,,,,,,,
,,,,,,,,,,,,,,,,,,2019-05-27_19h32.59.952,Probabilistic Learning,3.1.0,60,,,,,,0,1,0,3,0,1,2,hiragana1.xlsx,hiragana11.xlsx,hiragana12.xlsx,6,0,180,6,1,179,a,A,m,m,,,,,,,,,,,,,,,,,,,,,,,,,,,,,,,,,,
,,,,,,,,,,,,,,,,,,2019-05-27_19h32.59.952,Probabilistic Learning,3.1.0,60,,,,,,0,1,0,3,0,1,2,hiragana1.xlsx,hiragana11.xlsx,hiragana12.xlsx,6,0,180,24,1,179,L,I,m,,,m,,,,,,,,,,,,,,,,,,,,,,,,,,,,,,,,
,,,,,,,,,,,,,,,,,,2019-05-27_19h32.59.952,Probabilistic Learning,3.1.0,60,,,,,,0,1,0,3,0,1,2,hiragana1.xlsx,hiragana11.xlsx,hiragana12.xlsx,6,0,180,20,1,179,I,L,c,,,c,,,,,,,,,,,,,,,,,,,,,,,,,,,,,,,,
,,,,,,,,,,,,,,,,,,2019-05-27_19h32.59.952,Probabilistic Learning,3.1.0,60,,,,,,0,1,0,3,0,1,2,hiragana1.xlsx,hiragana11.xlsx,hiragana12.xlsx,6,0,180,4,1,179,a,A,m,m,,,,,,,,,,,,,,,,,,,,,,,,,,,,,,,,,,
,,,,,,,,,,,,,,,,,,2019-05-27_19h32.59.952,Probabilistic Learning,3.1.0,60,,,,,,0,1,0,3,0,1,2,hiragana1.xlsx,hiragana11.xlsx,hiragana12.xlsx,6,0,180,19,1,179,O,d,m,,c,,,,,,,,,,,,,,,,,,,,,,,,,,,,,,,,,
,,,,,,,,,,,,,,,,,,2019-05-27_19h32.59.952,Probabilistic Learning,3.1.0,60,,,,,,0,1,0,3,0,1,2,hiragana1.xlsx,hiragana11.xlsx,hiragana12.xlsx,6,0,180,5,1,179,a,A,m,m,,,,,,,,,,,,,,,,,,,,,,,,,,,,,,,,,,
,,,,,,,,,,,,,,,,,,2019-05-27_19h32.59.952,Probabilistic Learning,3.1.0,60,,,,,,0,1,0,3,0,1,2,hiragana1.xlsx,hiragana11.xlsx,hiragana12.xlsx,6,0,180,26,1,179,I,L,m,,,c,,,,,,,,,,,,,,,,,,,,,,,,,,,,,,,,
,,,,,,,,,,,,,,,,,,2019-05-27_19h32.59.952,Probabilistic Learning,3.1.0,60,,,,,,0,1,0,3,0,1,2,hiragana1.xlsx,hiragana11.xlsx,hiragana12.xlsx,6,0,180,16,1,179,d,O,m,,m,,,,,,,,,,,,,,,,,,,,,,,,,,,,,,,,,
,,,,,,,,,,,,,,,,,,2019-05-27_19h32.59.952,Probabilistic Learning,3.1.0,60,,,,,,0,1,0,3,0,1,2,hiragana1.xlsx,hiragana11.xlsx,hiragana12.xlsx,6,0,180,10,1,179,O,d,c,,c,,,,,,,,,,,,,,,,,,,,,,,,,,,,,,,,,
,,,,,,,,,,,,,,,,,,2019-05-27_19h32.59.952,Probabilistic Learning,3.1.0,60,,,,,,0,1,0,3,0,1,2,hiragana1.xlsx,hiragana11.xlsx,hiragana12.xlsx,6,0,180,7,1,179,a,A,m,m,,,,,,,,,,,,,,,,,,,,,,,,,,,,,,,,,,
,,,,,,,,,,,,,,,,,,2019-05-27_19h32.59.952,Probabilistic Learning,3.1.0,60,,,,,,0,1,0,3,0,1,2,hiragana1.xlsx,hiragana11.xlsx,hiragana12.xlsx,6,0,180,15,1,179,d,O,m,,m,,,,,,,,,,,,,,,,,,,,,,,,,,,,,,,,,
,,,,,,,,,,,,,,,,,,2019-05-27_19h32.59.952,Probabilistic Learning,3.1.0,60,,,,,,0,1,0,3,0,1,2,hiragana1.xlsx,hiragana11.xlsx,hiragana12.xlsx,6,0,180,1,1,179,A,a,c,c,,,,,,,,,,,,,,,,,,,,,,,,,,,,,,,,,,
,,,,,,,,,,,,,,,,,,2019-05-27_19h32.59.952,Probabilistic Learning,3.1.0,60,,,,,,0,1,0,3,0,1,2,hiragana1.xlsx,hiragana11.xlsx,hiragana12.xlsx,6,0,180,18,1,179,d,O,c,,m,,,,,,,,,,,,,,,,,,,,,,,,,,,,,,,,,
,,,,,,,,,,,,,,,,,,2019-05-27_19h32.59.952,Probabilistic Learning,3.1.0,60,,,,,,0,1,0,3,0,1,2,hiragana1.xlsx,hiragana11.xlsx,hiragana12.xlsx,6,0,180,22,1,179,I,L,c,,,c,,,,,,,,,,,,,,,,,,,,,,,,,,,,,,,,
,,,,,,,,,,,,,,,,,,2019-05-27_19h32.59.952,Probabilistic Learning,3.1.0,60,,,,,,0,1,0,3,0,1,2,hiragana1.xlsx,hiragana11.xlsx,hiragana12.xlsx,6,0,180,13,1,179,O,d,c,,c,,,,,,,,,,,,,,,,,,,,,,,,,,,,,,,,,
,,,,,,,,,,,,,,,,,,2019-05-27_19h32.59.952,Probabilistic Learning,3.1.0,60,,,,,,0,1,0,3,0,1,2,hiragana1.xlsx,hiragana11.xlsx,hiragana12.xlsx,6,0,180,11,1,179,O,d,c,,c,,,,,,,,,,,,,,,,,,,,,,,,,,,,,,,,,
,,,,,,,,,,,,,,,,,,2019-05-27_19h32.59.952,Probabilistic Learning,3.1.0,60,,,,,,0,1,0,3,0,1,2,hiragana1.xlsx,hiragana11.xlsx,hiragana12.xlsx,6,0,180,14,1,179,d,O,m,,m,,,,,,,,,,,,,,,,,,,,,,,,,,,,,,,,,
,,,,,,,,,,,,,,,,,,2019-05-27_19h32.59.952,Probabilistic Learning,3.1.0,60,,,,,,0,1,0,3,0,1,2,hiragana1.xlsx,hiragana11.xlsx,hiragana12.xlsx,6,0,180,27,1,179,I,L,m,,,c,,,,,,,,,,,,,,,,,,,,,,,,,,,,,,,,
,,,,,,,,,,,,,,,,,,2019-05-27_19h32.59.952,Probabilistic Learning,3.1.0,60,,,,,,0,1,0,3,0,1,2,hiragana1.xlsx,hiragana11.xlsx,hiragana12.xlsx,6,0,180,25,1,179,L,I,m,,,m,,,,,,,,,,,,,,,,,,,,,,,,,,,,,,,,
,,,,,,,,,,,,,,,,,,2019-05-27_19h32.59.952,Probabilistic Learning,3.1.0,60,,,,,,0,1,0,3,0,1,2,hiragana1.xlsx,hiragana11.xlsx,hiragana12.xlsx,6,0,180,21,1,179,I,L,c,,,c,,,,,,,,,,,,,,,,,,,,,,,,,,,,,,,,
,,,,,,,,,,,,,,,,,,2019-05-27_19h32.59.952,Probabilistic Learning,3.1.0,60,,,,,,0,1,0,3,0,1,2,hiragana1.xlsx,hiragana11.xlsx,hiragana12.xlsx,6,0,180,0,1,179,A,a,c,c,,,,,,,,,,,,,,,,,,,,,,,,,,,,,,,,,,
,,,,,,,,,,,,,,,,,,2019-05-27_19h32.59.952,Probabilistic Learning,3.1.0,60,,,,,,0,1,0,3,0,1,2,hiragana1.xlsx,hiragana11.xlsx,hiragana12.xlsx,6,0,180,17,1,179,d,O,c,,m,,,,,,,,,,,,,,,,,,,,,,,,,,,,,,,,,
,,,,,,,,,,,,,,,,,,2019-05-27_19h32.59.952,Probabilistic Learning,3.1.0,60,,,,,,0,1,0,3,0,1,2,hiragana1.xlsx,hiragana11.xlsx,hiragana12.xlsx,6,0,180,28,1,179,L,I,c,,,m,,,,,,,,,,,,,,,,,,,,,,,,,,,,,,,,
,,,,,,,,,,,,,,,,,,2019-05-27_19h32.59.952,Probabilistic Learning,3.1.0,60,,,,,,0,1,0,3,0,1,2,hiragana1.xlsx,hiragana11.xlsx,hiragana12.xlsx,6,0,180,3,1,179,A,a,c,c,,,,,,,,,,,,,,,,,,,,,,,,,,,,,,,,,,
,,,,,,,,,,,,,,,,,,2019-05-27_19h32.59.952,Probabilistic Learning,3.1.0,60,,,,,,0,1,0,3,0,1,2,hiragana1.xlsx,hiragana11.xlsx,hiragana12.xlsx,6,0,180,29,1,179,L,I,c,,,m,,,,,,,,,,,,,,,,,,,,,,,,,,,,,,,,
,,,,,,,,,,,,,,,,,,2019-05-27_19h32.59.952,Probabilistic Learning,3.1.0,60,,,,,,0,1,0,3,0,1,2,hiragana1.xlsx,hiragana11.xlsx,hiragana12.xlsx,6,0,180,9,1,179,a,A,c,m,,,,,,,,,,,,,,,,,,,,,,,,,,,,,,,,,,
,,,,,,,,,,,,,,,,,,2019-05-27_19h32.59.952,Probabilistic Learning,3.1.0,60,,,,,,0,1,0,3,0,1,2,hiragana1.xlsx,hiragana11.xlsx,hiragana12.xlsx,6,0,180,15,1,179,d,O,m,,m,,,,,,,,,,,,,,,,,,,,,,,,,,,,,,,,,
,,,,,,,,,,,,,,,,,,2019-05-27_19h32.59.952,Probabilistic Learning,3.1.0,60,,,,,,0,1,0,3,0,1,2,hiragana1.xlsx,hiragana11.xlsx,hiragana12.xlsx,6,0,180,5,1,179,a,A,m,m,,,,,,,,,,,,,,,,,,,,,,,,,,,,,,,,,,
,,,,,,,,,,,,,,,,,,2019-05-27_19h32.59.952,Probabilistic Learning,3.1.0,60,,,,,,0,1,0,3,0,1,2,hiragana1.xlsx,hiragana11.xlsx,hiragana12.xlsx,6,0,180,27,1,179,I,L,m,,,c,,,,,,,,,,,,,,,,,,,,,,,,,,,,,,,,
,,,,,,,,,,,,,,,,,,2019-05-27_19h32.59.952,Probabilistic Learning,3.1.0,60,,,,,,0,1,0,3,0,1,2,hiragana1.xlsx,hiragana11.xlsx,hiragana12.xlsx,6,0,180,8,1,179,A,a,m,c,,,,,,,,,,,,,,,,,,,,,,,,,,,,,,,,,,
,,,,,,,,,,,,,,,,,,2019-05-27_19h32.59.952,Probabilistic Learning,3.1.0,60,,,,,,0,1,0,3,0,1,2,hiragana1.xlsx,hiragana11.xlsx,hiragana12.xlsx,6,0,180,14,1,179,d,O,m,,m,,,,,,,,,,,,,,,,,,,,,,,,,,,,,,,,,
,,,,,,,,,,,,,,,,,,2019-05-27_19h32.59.952,Probabilistic Learning,3.1.0,60,,,,,,0,1,0,3,0,1,2,hiragana1.xlsx,hiragana11.xlsx,hiragana12.xlsx,6,0,180,26,1,179,I,L,m,,,c,,,,,,,,,,,,,,,,,,,,,,,,,,,,,,,,
,,,,,,,,,,,,,,,,,,2019-05-27_19h32.59.952,Probabilistic Learning,3.1.0,60,,,,,,0,1,0,3,0,1,2,hiragana1.xlsx,hiragana11.xlsx,hiragana12.xlsx,6,0,180,28,1,179,L,I,c,,,m,,,,,,,,,,,,,,,,,,,,,,,,,,,,,,,,
,,,,,,,,,,,,,,,,,,2019-05-27_19h32.59.952,Probabilistic Learning,3.1.0,60,,,,,,0,1,0,3,0,1,2,hiragana1.xlsx,hiragana11.xlsx,hiragana12.xlsx,6,0,180,18,1,179,d,O,c,,m,,,,,,,,,,,,,,,,,,,,,,,,,,,,,,,,,
,,,,,,,,,,,,,,,,,,2019-05-27_19h32.59.952,Probabilistic Learning,3.1.0,60,,,,,,0,1,0,3,0,1,2,hiragana1.xlsx,hiragana11.xlsx,hiragana12.xlsx,6,0,180,3,1,179,A,a,c,c,,,,,,,,,,,,,,,,,,,,,,,,,,,,,,,,,,
,,,,,,,,,,,,,,,,,,2019-05-27_19h32.59.952,Probabilistic Learning,3.1.0,60,,,,,,0,1,0,3,0,1,2,hiragana1.xlsx,hiragana11.xlsx,hiragana12.xlsx,6,0,180,20,1,179,I,L,c,,,c,,,,,,,,,,,,,,,,,,,,,,,,,,,,,,,,
,,,,,,,,,,,,,,,,,,2019-05-27_19h32.59.952,Probabilistic Learning,3.1.0,60,,,,,,0,1,0,3,0,1,2,hiragana1.xlsx,hiragana11.xlsx,hiragana12.xlsx,6,0,180,24,1,179,L,I,m,,,m,,,,,,,,,,,,,,,,,,,,,,,,,,,,,,,,
,,,,,,,,,,,,,,,,,,2019-05-27_19h32.59.952,Probabilistic Learning,3.1.0,60,,,,,,0,1,0,3,0,1,2,hiragana1.xlsx,hiragana11.xlsx,hiragana12.xlsx,6,0,180,21,1,179,I,L,c,,,c,,,,,,,,,,,,,,,,,,,,,,,,,,,,,,,,
,,,,,,,,,,,,,,,,,,2019-05-27_19h32.59.952,Probabilistic Learning,3.1.0,60,,,,,,0,1,0,3,0,1,2,hiragana1.xlsx,hiragana11.xlsx,hiragana12.xlsx,6,0,180,1,1,179,A,a,c,c,,,,,,,,,,,,,,,,,,,,,,,,,,,,,,,,,,
,,,,,,,,,,,,,,,,,,2019-05-27_19h32.59.952,Probabilistic Learning,3.1.0,60,,,,,,0,1,0,3,0,1,2,hiragana1.xlsx,hiragana11.xlsx,hiragana12.xlsx,6,0,180,25,1,179,L,I,m,,,m,,,,,,,,,,,,,,,,,,,,,,,,,,,,,,,,
,,,,,,,,,,,,,,,,,,2019-05-27_19h32.59.952,Probabilistic Learning,3.1.0,60,,,,,,0,1,0,3,0,1,2,hiragana1.xlsx,hiragana11.xlsx,hiragana12.xlsx,6,0,180,10,1,179,O,d,c,,c,,,,,,,,,,,,,,,,,,,,,,,,,,,,,,,,,
,,,,,,,,,,,,,,,,,,2019-05-27_19h32.59.952,Probabilistic Learning,3.1.0,60,,,,,,0,1,0,3,0,1,2,hiragana1.xlsx,hiragana11.xlsx,hiragana12.xlsx,6,0,180,19,1,179,O,d,m,,c,,,,,,,,,,,,,,,,,,,,,,,,,,,,,,,,,
,,,,,,,,,,,,,,,,,,2019-05-27_19h32.59.952,Probabilistic Learning,3.1.0,60,,,,,,0,1,0,3,0,1,2,hiragana1.xlsx,hiragana11.xlsx,hiragana12.xlsx,6,0,180,12,1,179,O,d,c,,c,,,,,,,,,,,,,,,,,,,,,,,,,,,,,,,,,
,,,,,,,,,,,,,,,,,,2019-05-27_19h32.59.952,Probabilistic Learning,3.1.0,60,,,,,,0,1,0,3,0,1,2,hiragana1.xlsx,hiragana11.xlsx,hiragana12.xlsx,6,0,180,11,1,179,O,d,c,,c,,,,,,,,,,,,,,,,,,,,,,,,,,,,,,,,,
,,,,,,,,,,,,,,,,,,2019-05-27_19h32.59.952,Probabilistic Learning,3.1.0,60,,,,,,0,1,0,3,0,1,2,hiragana1.xlsx,hiragana11.xlsx,hiragana12.xlsx,6,0,180,7,1,179,a,A,m,m,,,,,,,,,,,,,,,,,,,,,,,,,,,,,,,,,,
,,,,,,,,,,,,,,,,,,2019-05-27_19h32.59.952,Probabilistic Learning,3.1.0,60,,,,,,0,1,0,3,0,1,2,hiragana1.xlsx,hiragana11.xlsx,hiragana12.xlsx,6,0,180,13,1,179,O,d,c,,c,,,,,,,,,,,,,,,,,,,,,,,,,,,,,,,,,
,,,,,,,,,,,,,,,,,,2019-05-27_19h32.59.952,Probabilistic Learning,3.1.0,60,,,,,,0,1,0,3,0,1,2,hiragana1.xlsx,hiragana11.xlsx,hiragana12.xlsx,6,0,180,4,1,179,a,A,m,m,,,,,,,,,,,,,,,,,,,,,,,,,,,,,,,,,,
,,,,,,,,,,,,,,,,,,2019-05-27_19h32.59.952,Probabilistic Learning,3.1.0,60,,,,,,0,1,0,3,0,1,2,hiragana1.xlsx,hiragana11.xlsx,hiragana12.xlsx,6,0,180,6,1,179,a,A,m,m,,,,,,,,,,,,,,,,,,,,,,,,,,,,,,,,,,
,,,,,,,,,,,,,,,,,,2019-05-27_19h32.59.952,Probabilistic Learning,3.1.0,60,,,,,,0,1,0,3,0,1,2,hiragana1.xlsx,hiragana11.xlsx,hiragana12.xlsx,6,0,180,16,1,179,d,O,m,,m,,,,,,,,,,,,,,,,,,,,,,,,,,,,,,,,,
,,,,,,,,,,,,,,,,,,2019-05-27_19h32.59.952,Probabilistic Learning,3.1.0,60,,,,,,0,1,0,3,0,1,2,hiragana1.xlsx,hiragana11.xlsx,hiragana12.xlsx,6,0,180,23,1,179,L,I,m,,,m,,,,,,,,,,,,,,,,,,,,,,,,,,,,,,,,
,,,,,,,,,,,,,,,,,,2019-05-27_19h32.59.952,Probabilistic Learning,3.1.0,60,,,,,,0,1,0,3,0,1,2,hiragana1.xlsx,hiragana11.xlsx,hiragana12.xlsx,6,0,180,0,1,179,A,a,c,c,,,,,,,,,,,,,,,,,,,,,,,,,,,,,,,,,,
,,,,,,,,,,,,,,,,,,2019-05-27_19h32.59.952,Probabilistic Learning,3.1.0,60,,,,,,0,1,0,3,0,1,2,hiragana1.xlsx,hiragana11.xlsx,hiragana12.xlsx,6,0,180,22,1,179,I,L,c,,,c,,,,,,,,,,,,,,,,,,,,,,,,,,,,,,,,
,,,,,,,,,,,,,,,,,,2019-05-27_19h32.59.952,Probabilistic Learning,3.1.0,60,,,,,,0,1,0,3,0,1,2,hiragana1.xlsx,hiragana11.xlsx,hiragana12.xlsx,6,0,180,2,1,179,A,a,c,c,,,,,,,,,,,,,,,,,,,,,,,,,,,,,,,,,,
,,,,,,,,,,,,,,,,,,2019-05-27_19h32.59.952,Probabilistic Learning,3.1.0,60,,,,,,0,1,0,3,0,1,2,hiragana1.xlsx,hiragana11.xlsx,hiragana12.xlsx,6,0,180,17,1,179,d,O,c,,m,,,,,,,,,,,,,,,,,,,,,,,,,,,,,,,,,
,,,,,,,,,,,,,,,,,,2019-05-27_19h32.59.952,Probabilistic Learning,3.1.0,60,,,,,,,1,0,3,0,1,2,hiragana1.xlsx,hiragana11.xlsx,hiragana12.xlsx,,,,,,,,,,,,,space,12.878,space,1.542,,2,0,92,3,1,91,d,O,D,C,,,,,,,,,,,,,,,,,
,,,,,,,,,,,,,,,,,,2019-05-27_19h32.59.952,Probabilistic Learning,3.1.0,60,,,,,,,1,0,3,0,1,2,hiragana1.xlsx,hiragana11.xlsx,hiragana12.xlsx,,,,,,,,,,,,,,,,,,2,0,92,34,1,91,a,L,B,F,,m,,,,,,,,,,,,,,,
,,,,,,,,,,,,,,,,,,2019-05-27_19h32.59.952,Probabilistic Learning,3.1.0,60,,,,,,,1,0,3,0,1,2,hiragana1.xlsx,hiragana11.xlsx,hiragana12.xlsx,,,,,,,,,,,,,,,,,,2,0,92,22,1,91,a,O,B,C,,m,,,,,,,,,,,,,,,
,,,,,,,,,,,,,,,,,,2019-05-27_19h32.59.952,Probabilistic Learning,3.1.0,60,,,,,,,1,0,3,0,1,2,hiragana1.xlsx,hiragana11.xlsx,hiragana12.xlsx,,,,,,,,,,,,,,,,,,2,0,92,40,1,91,O,L,c,f,,,,,,,,,,,,,,,,,
,,,,,,,,,,,,,,,,,,2019-05-27_19h32.59.952,Probabilistic Learning,3.1.0,60,,,,,,,1,0,3,0,1,2,hiragana1.xlsx,hiragana11.xlsx,hiragana12.xlsx,,,,,,,,,,,,,,,,,,2,0,92,37,1,91,L,a,F,B,,c,,,,,,,,,,,,,,,
,,,,,,,,,,,,,,,,,,2019-05-27_19h32.59.952,Probabilistic Learning,3.1.0,60,,,,,,,1,0,3,0,1,2,hiragana1.xlsx,hiragana11.xlsx,hiragana12.xlsx,,,,,,,,,,,,,,,,,,2,0,92,41,1,91,L,O,f,c,,,,,,,,,,,,,,,,,
,,,,,,,,,,,,,,,,,,2019-05-27_19h32.59.952,Probabilistic Learning,3.1.0,60,,,,,,,1,0,3,0,1,2,hiragana1.xlsx,hiragana11.xlsx,hiragana12.xlsx,,,,,,,,,,,,,,,,,,2,0,92,42,1,91,d,I,d,e,,,,,,,,,,,,,,,,,
,,,,,,,,,,,,,,,,,,2019-05-27_19h32.59.952,Probabilistic Learning,3.1.0,60,,,,,,,1,0,3,0,1,2,hiragana1.xlsx,hiragana11.xlsx,hiragana12.xlsx,,,,,,,,,,,,,,,,,,2,0,92,38,1,91,O,I,C,E,,,,,,,,,,,,,,,,,
,,,,,,,,,,,,,,,,,,2019-05-27_19h32.59.952,Probabilistic Learning,3.1.0,60,,,,,,,1,0,3,0,1,2,hiragana1.xlsx,hiragana11.xlsx,hiragana12.xlsx,,,,,,,,,,,,,,,,,,2,0,92,44,1,91,d,L,d,f,,,,,,,,,,,,,,,,,
,,,,,,,,,,,,,,,,,,2019-05-27_19h32.59.952,Probabilistic Learning,3.1.0,60,,,,,,,1,0,3,0,1,2,hiragana1.xlsx,hiragana11.xlsx,hiragana12.xlsx,,,,,,,,,,,,,,,,,,2,0,92,2,1,91,O,d,C,D,,,,,,,,,,,,,,,,,
,,,,,,,,,,,,,,,,,,2019-05-27_19h32.59.952,Probabilistic Learning,3.1.0,60,,,,,,,1,0,3,0,1,2,hiragana1.xlsx,hiragana11.xlsx,hiragana12.xlsx,,,,,,,,,,,,,,,,,,2,0,92,31,1,91,a,I,B,E,,m,,,,,,,,,,,,,,,
,,,,,,,,,,,,,,,,,,2019-05-27_19h32.59.952,Probabilistic Learning,3.1.0,60,,,,,,,1,0,3,0,1,2,hiragana1.xlsx,hiragana11.xlsx,hiragana12.xlsx,,,,,,,,,,,,,,,,,,2,0,92,23,1,91,a,O,B,C,,m,,,,,,,,,,,,,,,
,,,,,,,,,,,,,,,,,,2019-05-27_19h32.59.952,Probabilistic Learning,3.1.0,60,,,,,,,1,0,3,0,1,2,hiragana1.xlsx,hiragana11.xlsx,hiragana12.xlsx,,,,,,,,,,,,,,,,,,2,0,92,32,1,91,I,a,E,B,,c,,,,,,,,,,,,,,,
,,,,,,,,,,,,,,,,,,2019-05-27_19h32.59.952,Probabilistic Learning,3.1.0,60,,,,,,,1,0,3,0,1,2,hiragana1.xlsx,hiragana11.xlsx,hiragana12.xlsx,,,,,,,,,,,,,,,,,,2,0,92,11,1,91,A,d,A,D,c,,,,,,,,,,,,,,,,
,,,,,,,,,,,,,,,,,,2019-05-27_19h32.59.952,Probabilistic Learning,3.1.0,60,,,,,,,1,0,3,0,1,2,hiragana1.xlsx,hiragana11.xlsx,hiragana12.xlsx,,,,,,,,,,,,,,,,,,2,0,92,14,1,91,A,I,A,E,c,,,,,,,,,,,,,,,,
,,,,,,,,,,,,,,,,,,2019-05-27_19h32.59.952,Probabilistic Learning,3.1.0,60,,,,,,,1,0,3,0,1,2,hiragana1.xlsx,hiragana11.xlsx,hiragana12.xlsx,,,,,,,,,,,,,,,,,,2,0,92,9,1,91,O,A,C,A,m,,,,,,,,,,,,,,,,
,,,,,,,,,,,,,,,,,,2019-05-27_19h32.59.952,Probabilistic Learning,3.1.0,60,,,,,,,1,0,3,0,1,2,hiragana1.xlsx,hiragana11.xlsx,hiragana12.xlsx,,,,,,,,,,,,,,,,,,2,0,92,25,1,91,O,a,C,B,,c,,,,,,,,,,,,,,,
,,,,,,,,,,,,,,,,,,2019-05-27_19h32.59.952,Probabilistic Learning,3.1.0,60,,,,,,,1,0,3,0,1,2,hiragana1.xlsx,hiragana11.xlsx,hiragana12.xlsx,,,,,,,,,,,,,,,,,,2,0,92,30,1,91,a,I,B,E,,m,,,,,,,,,,,,,,,
,,,,,,,,,,,,,,,,,,2019-05-27_19h32.59.952,Probabilistic Learning,3.1.0,60,,,,,,,1,0,3,0,1,2,hiragana1.xlsx,hiragana11.xlsx,hiragana12.xlsx,,,,,,,,,,,,,,,,,,2,0,92,16,1,91,I,A,E,A,m,,,,,,,,,,,,,,,,
,,,,,,,,,,,,,,,,,,2019-05-27_19h32.59.952,Probabilistic Learning,3.1.0,60,,,,,,,1,0,3,0,1,2,hiragana1.xlsx,hiragana11.xlsx,hiragana12.xlsx,,,,,,,,,,,,,,,,,,2,0,92,10,1,91,A,d,A,D,c,,,,,,,,,,,,,,,,
,,,,,,,,,,,,,,,,,,2019-05-27_19h32.59.952,Probabilistic Learning,3.1.0,60,,,,,,,1,0,3,0,1,2,hiragana1.xlsx,hiragana11.xlsx,hiragana12.xlsx,,,,,,,,,,,,,,,,,,2,0,92,5,1,91,L,I,F,E,,,,,,,,,,,,,,,,,
,,,,,,,,,,,,,,,,,,2019-05-27_19h32.59.952,Probabilistic Learning,3.1.0,60,,,,,,,1,0,3,0,1,2,hiragana1.xlsx,hiragana11.xlsx,hiragana12.xlsx,,,,,,,,,,,,,,,,,,2,0,92,18,1,91,A,L,A,F,c,,,,,,,,,,,,,,,,
,,,,,,,,,,,,,,,,,,2019-05-27_19h32.59.952,Probabilistic Learning,3.1.0,60,,,,,,,1,0,3,0,1,2,hiragana1.xlsx,hiragana11.xlsx,hiragana12.xlsx,,,,,,,,,,,,,,,,,,2,0,92,7,1,91,A,O,A,C,c,,,,,,,,,,,,,,,,
,,,,,,,,,,,,,,,,,,2019-05-27_19h32.59.952,Probabilistic Learning,3.1.0,60,,,,,,,1,0,3,0,1,2,hiragana1.xlsx,hiragana11.xlsx,hiragana12.xlsx,,,,,,,,,,,,,,,,,,2,0,92,26,1,91,a,d,B,D,,m,,,,,,,,,,,,,,,
,,,,,,,,,,,,,,,,,,2019-05-27_19h32.59.952,Probabilistic Learning,3.1.0,60,,,,,,,1,0,3,0,1,2,hiragana1.xlsx,hiragana11.xlsx,hiragana12.xlsx,,,,,,,,,,,,,,,,,,2,0,92,33,1,91,I,a,E,B,,c,,,,,,,,,,,,,,,
,,,,,,,,,,,,,,,,,,2019-05-27_19h32.59.952,Probabilistic Learning,3.1.0,60,,,,,,,1,0,3,0,1,2,hiragana1.xlsx,hiragana11.xlsx,hiragana12.xlsx,,,,,,,,,,,,,,,,,,2,0,92,29,1,91,d,a,D,B,,c,,,,,,,,,,,,,,,
,,,,,,,,,,,,,,,,,,2019-05-27_19h32.59.952,Probabilistic Learning,3.1.0,60,,,,,,,1,0,3,0,1,2,hiragana1.xlsx,hiragana11.xlsx,hiragana12.xlsx,,,,,,,,,,,,,,,,,,2,0,92,43,1,91,I,d,e,d,,,,,,,,,,,,,,,,,
,,,,,,,,,,,,,,,,,,2019-05-27_19h32.59.952,Probabilistic Learning,3.1.0,60,,,,,,,1,0,3,0,1,2,hiragana1.xlsx,hiragana11.xlsx,hiragana12.xlsx,,,,,,,,,,,,,,,,,,2,0,92,39,1,91,I,O,e,c,,,,,,,,,,,,,,,,,
,,,,,,,,,,,,,,,,,,2019-05-27_19h32.59.952,Probabilistic Learning,3.1.0,60,,,,,,,1,0,3,0,1,2,hiragana1.xlsx,hiragana11.xlsx,hiragana12.xlsx,,,,,,,,,,,,,,,,,,2,0,92,13,1,91,d,A,D,A,m,,,,,,,,,,,,,,,,
,,,,,,,,,,,,,,,,,,2019-05-27_19h32.59.952,Probabilistic Learning,3.1.0,60,,,,,,,1,0,3,0,1,2,hiragana1.xlsx,hiragana11.xlsx,hiragana12.xlsx,,,,,,,,,,,,,,,,,,2,0,92,17,1,91,I,A,E,A,m,,,,,,,,,,,,,,,,
,,,,,,,,,,,,,,,,,,2019-05-27_19h32.59.952,Probabilistic Learning,3.1.0,60,,,,,,,1,0,3,0,1,2,hiragana1.xlsx,hiragana11.xlsx,hiragana12.xlsx,,,,,,,,,,,,,,,,,,2,0,92,12,1,91,d,A,D,A,m,,,,,,,,,,,,,,,,
,,,,,,,,,,,,,,,,,,2019-05-27_19h32.59.952,Probabilistic Learning,3.1.0,60,,,,,,,1,0,3,0,1,2,hiragana1.xlsx,hiragana11.xlsx,hiragana12.xlsx,,,,,,,,,,,,,,,,,,2,0,92,35,1,91,a,L,B,F,,m,,,,,,,,,,,,,,,
,,,,,,,,,,,,,,,,,,2019-05-27_19h32.59.952,Probabilistic Learning,3.1.0,60,,,,,,,1,0,3,0,1,2,hiragana1.xlsx,hiragana11.xlsx,hiragana12.xlsx,,,,,,,,,,,,,,,,,,2,0,92,19,1,91,A,L,A,F,c,,,,,,,,,,,,,,,,
,,,,,,,,,,,,,,,,,,2019-05-27_19h32.59.952,Probabilistic Learning,3.1.0,60,,,,,,,1,0,3,0,1,2,hiragana1.xlsx,hiragana11.xlsx,hiragana12.xlsx,,,,,,,,,,,,,,,,,,2,0,92,0,1,91,A,a,A,B,,,,,,,,,,,,,,,,,
,,,,,,,,,,,,,,,,,,2019-05-27_19h32.59.952,Probabilistic Learning,3.1.0,60,,,,,,,1,0,3,0,1,2,hiragana1.xlsx,hiragana11.xlsx,hiragana12.xlsx,,,,,,,,,,,,,,,,,,2,0,92,1,1,91,a,A,B,A,,,,,,,,,,,,,,,,,
,,,,,,,,,,,,,,,,,,2019-05-27_19h32.59.952,Probabilistic Learning,3.1.0,60,,,,,,,1,0,3,0,1,2,hiragana1.xlsx,hiragana11.xlsx,hiragana12.xlsx,,,,,,,,,,,,,,,,,,2,0,92,27,1,91,a,d,B,D,,m,,,,,,,,,,,,,,,
,,,,,,,,,,,,,,,,,,2019-05-27_19h32.59.952,Probabilistic Learning,3.1.0,60,,,,,,,1,0,3,0,1,2,hiragana1.xlsx,hiragana11.xlsx,hiragana12.xlsx,,,,,,,,,,,,,,,,,,2,0,92,8,1,91,O,A,C,A,m,,,,,,,,,,,,,,,,
,,,,,,,,,,,,,,,,,,2019-05-27_19h32.59.952,Probabilistic Learning,3.1.0,60,,,,,,,1,0,3,0,1,2,hiragana1.xlsx,hiragana11.xlsx,hiragana12.xlsx,,,,,,,,,,,,,,,,,,2,0,92,24,1,91,O,a,C,B,,c,,,,,,,,,,,,,,,
,,,,,,,,,,,,,,,,,,2019-05-27_19h32.59.952,Probabilistic Learning,3.1.0,60,,,,,,,1,0,3,0,1,2,hiragana1.xlsx,hiragana11.xlsx,hiragana12.xlsx,,,,,,,,,,,,,,,,,,2,0,92,45,1,91,L,d,f,d,,,,,,,,,,,,,,,,,
,,,,,,,,,,,,,,,,,,2019-05-27_19h32.59.952,Probabilistic Learning,3.1.0,60,,,,,,,1,0,3,0,1,2,hiragana1.xlsx,hiragana11.xlsx,hiragana12.xlsx,,,,,,,,,,,,,,,,,,2,0,92,15,1,91,A,I,A,E,c,,,,,,,,,,,,,,,,
,,,,,,,,,,,,,,,,,,2019-05-27_19h32.59.952,Probabilistic Learning,3.1.0,60,,,,,,,1,0,3,0,1,2,hiragana1.xlsx,hiragana11.xlsx,hiragana12.xlsx,,,,,,,,,,,,,,,,,,2,0,92,20,1,91,L,A,F,A,m,,,,,,,,,,,,,,,,
,,,,,,,,,,,,,,,,,,2019-05-27_19h32.59.952,Probabilistic Learning,3.1.0,60,,,,,,,1,0,3,0,1,2,hiragana1.xlsx,hiragana11.xlsx,hiragana12.xlsx,,,,,,,,,,,,,,,,,,2,0,92,6,1,91,A,O,A,C,c,,,,,,,,,,,,,,,,
,,,,,,,,,,,,,,,,,,2019-05-27_19h32.59.952,Probabilistic Learning,3.1.0,60,,,,,,,1,0,3,0,1,2,hiragana1.xlsx,hiragana11.xlsx,hiragana12.xlsx,,,,,,,,,,,,,,,,,,2,0,92,21,1,91,L,A,F,A,m,,,,,,,,,,,,,,,,
,,,,,,,,,,,,,,,,,,2019-05-27_19h32.59.952,Probabilistic Learning,3.1.0,60,,,,,,,1,0,3,0,1,2,hiragana1.xlsx,hiragana11.xlsx,hiragana12.xlsx,,,,,,,,,,,,,,,,,,2,0,92,28,1,91,d,a,D,B,,c,,,,,,,,,,,,,,,
,,,,,,,,,,,,,,,,,,2019-05-27_19h32.59.952,Probabilistic Learning,3.1.0,60,,,,,,,1,0,3,0,1,2,hiragana1.xlsx,hiragana11.xlsx,hiragana12.xlsx,,,,,,,,,,,,,,,,,,2,0,92,4,1,91,I,L,E,F,,,,,,,,,,,,,,,,,
,,,,,,,,,,,,,,,,,,2019-05-27_19h32.59.952,Probabilistic Learning,3.1.0,60,,,,,,,1,0,3,0,1,2,hiragana1.xlsx,hiragana11.xlsx,hiragana12.xlsx,,,,,,,,,,,,,,,,,,2,0,92,36,1,91,L,a,F,B,,c,,,,,,,,,,,,,,,
,,,,,,,,,,,,,,,,,,2019-05-27_19h32.59.952,Probabilistic Learning,3.1.0,60,,,,,,,1,0,3,0,1,2,hiragana1.xlsx,hiragana11.xlsx,hiragana12.xlsx,,,,,,,,,,,,,,,,,,2,0,92,42,1,91,d,I,d,e,,,,,,,,,,,,,,,,,
,,,,,,,,,,,,,,,,,,2019-05-27_19h32.59.952,Probabilistic Learning,3.1.0,60,,,,,,,1,0,3,0,1,2,hiragana1.xlsx,hiragana11.xlsx,hiragana12.xlsx,,,,,,,,,,,,,,,,,,2,0,92,2,1,91,O,d,C,D,,,,,,,,,,,,,,,,,
,,,,,,,,,,,,,,,,,,2019-05-27_19h32.59.952,Probabilistic Learning,3.1.0,60,,,,,,,1,0,3,0,1,2,hiragana1.xlsx,hiragana11.xlsx,hiragana12.xlsx,,,,,,,,,,,,,,,,,,2,0,92,38,1,91,O,I,C,E,,,,,,,,,,,,,,,,,
,,,,,,,,,,,,,,,,,,2019-05-27_19h32.59.952,Probabilistic Learning,3.1.0,60,,,,,,,1,0,3,0,1,2,hiragana1.xlsx,hiragana11.xlsx,hiragana12.xlsx,,,,,,,,,,,,,,,,,,2,0,92,8,1,91,O,A,C,A,m,,,,,,,,,,,,,,,,
,,,,,,,,,,,,,,,,,,2019-05-27_19h32.59.952,Probabilistic Learning,3.1.0,60,,,,,,,1,0,3,0,1,2,hiragana1.xlsx,hiragana11.xlsx,hiragana12.xlsx,,,,,,,,,,,,,,,,,,2,0,92,26,1,91,a,d,B,D,,m,,,,,,,,,,,,,,,
,,,,,,,,,,,,,,,,,,2019-05-27_19h32.59.952,Probabilistic Learning,3.1.0,60,,,,,,,1,0,3,0,1,2,hiragana1.xlsx,hiragana11.xlsx,hiragana12.xlsx,,,,,,,,,,,,,,,,,,2,0,92,1,1,91,a,A,B,A,,,,,,,,,,,,,,,,,
,,,,,,,,,,,,,,,,,,2019-05-27_19h32.59.952,Probabilistic Learning,3.1.0,60,,,,,,,1,0,3,0,1,2,hiragana1.xlsx,hiragana11.xlsx,hiragana12.xlsx,,,,,,,,,,,,,,,,,,2,0,92,40,1,91,O,L,c,f,,,,,,,,,,,,,,,,,
,,,,,,,,,,,,,,,,,,2019-05-27_19h32.59.952,Probabilistic Learning,3.1.0,60,,,,,,,1,0,3,0,1,2,hiragana1.xlsx,hiragana11.xlsx,hiragana12.xlsx,,,,,,,,,,,,,,,,,,2,0,92,9,1,91,O,A,C,A,m,,,,,,,,,,,,,,,,
,,,,,,,,,,,,,,,,,,2019-05-27_19h32.59.952,Probabilistic Learning,3.1.0,60,,,,,,,1,0,3,0,1,2,hiragana1.xlsx,hiragana11.xlsx,hiragana12.xlsx,,,,,,,,,,,,,,,,,,2,0,92,27,1,91,a,d,B,D,,m,,,,,,,,,,,,,,,
,,,,,,,,,,,,,,,,,,2019-05-27_19h32.59.952,Probabilistic Learning,3.1.0,60,,,,,,,1,0,3,0,1,2,hiragana1.xlsx,hiragana11.xlsx,hiragana12.xlsx,,,,,,,,,,,,,,,,,,2,0,92,25,1,91,O,a,C,B,,c,,,,,,,,,,,,,,,
,,,,,,,,,,,,,,,,,,2019-05-27_19h32.59.952,Probabilistic Learning,3.1.0,60,,,,,,,1,0,3,0,1,2,hiragana1.xlsx,hiragana11.xlsx,hiragana12.xlsx,,,,,,,,,,,,,,,,,,2,0,92,20,1,91,L,A,F,A,m,,,,,,,,,,,,,,,,
,,,,,,,,,,,,,,,,,,2019-05-27_19h32.59.952,Probabilistic Learning,3.1.0,60,,,,,,,1,0,3,0,1,2,hiragana1.xlsx,hiragana11.xlsx,hiragana12.xlsx,,,,,,,,,,,,,,,,,,2,0,92,19,1,91,A,L,A,F,c,,,,,,,,,,,,,,,,
,,,,,,,,,,,,,,,,,,2019-05-27_19h32.59.952,Probabilistic Learning,3.1.0,60,,,,,,,1,0,3,0,1,2,hiragana1.xlsx,hiragana11.xlsx,hiragana12.xlsx,,,,,,,,,,,,,,,,,,2,0,92,6,1,91,A,O,A,C,c,,,,,,,,,,,,,,,,
,,,,,,,,,,,,,,,,,,2019-05-27_19h32.59.952,Probabilistic Learning,3.1.0,60,,,,,,,1,0,3,0,1,2,hiragana1.xlsx,hiragana11.xlsx,hiragana12.xlsx,,,,,,,,,,,,,,,,,,2,0,92,12,1,91,d,A,D,A,m,,,,,,,,,,,,,,,,
,,,,,,,,,,,,,,,,,,2019-05-27_19h32.59.952,Probabilistic Learning,3.1.0,60,,,,,,,1,0,3,0,1,2,hiragana1.xlsx,hiragana11.xlsx,hiragana12.xlsx,,,,,,,,,,,,,,,,,,2,0,92,16,1,91,I,A,E,A,m,,,,,,,,,,,,,,,,
,,,,,,,,,,,,,,,,,,2019-05-27_19h32.59.952,Probabilistic Learning,3.1.0,60,,,,,,,1,0,3,0,1,2,hiragana1.xlsx,hiragana11.xlsx,hiragana12.xlsx,,,,,,,,,,,,,,,,,,2,0,92,43,1,91,I,d,e,d,,,,,,,,,,,,,,,,,
,,,,,,,,,,,,,,,,,,2019-05-27_19h32.59.952,Probabilistic Learning,3.1.0,60,,,,,,,1,0,3,0,1,2,hiragana1.xlsx,hiragana11.xlsx,hiragana12.xlsx,,,,,,,,,,,,,,,,,,2,0,92,22,1,91,a,O,B,C,,m,,,,,,,,,,,,,,,
,,,,,,,,,,,,,,,,,,2019-05-27_19h32.59.952,Probabilistic Learning,3.1.0,60,,,,,,,1,0,3,0,1,2,hiragana1.xlsx,hiragana11.xlsx,hiragana12.xlsx,,,,,,,,,,,,,,,,,,2,0,92,32,1,91,I,a,E,B,,c,,,,,,,,,,,,,,,
,,,,,,,,,,,,,,,,,,2019-05-27_19h32.59.952,Probabilistic Learning,3.1.0,60,,,,,,,1,0,3,0,1,2,hiragana1.xlsx,hiragana11.xlsx,hiragana12.xlsx,,,,,,,,,,,,,,,,,,2,0,92,35,1,91,a,L,B,F,,m,,,,,,,,,,,,,,,
,,,,,,,,,,,,,,,,,,2019-05-27_19h32.59.952,Probabilistic Learning,3.1.0,60,,,,,,,1,0,3,0,1,2,hiragana1.xlsx,hiragana11.xlsx,hiragana12.xlsx,,,,,,,,,,,,,,,,,,2,0,92,13,1,91,d,A,D,A,m,,,,,,,,,,,,,,,,
,,,,,,,,,,,,,,,,,,2019-05-27_19h32.59.952,Probabilistic Learning,3.1.0,60,,,,,,,1,0,3,0,1,2,hiragana1.xlsx,hiragana11.xlsx,hiragana12.xlsx,,,,,,,,,,,,,,,,,,2,0,92,29,1,91,d,a,D,B,,c,,,,,,,,,,,,,,,
,,,,,,,,,,,,,,,,,,2019-05-27_19h32.59.952,Probabilistic Learning,3.1.0,60,,,,,,,1,0,3,0,1,2,hiragana1.xlsx,hiragana11.xlsx,hiragana12.xlsx,,,,,,,,,,,,,,,,,,2,0,92,30,1,91,a,I,B,E,,m,,,,,,,,,,,,,,,
,,,,,,,,,,,,,,,,,,2019-05-27_19h32.59.952,Probabilistic Learning,3.1.0,60,,,,,,,1,0,3,0,1,2,hiragana1.xlsx,hiragana11.xlsx,hiragana12.xlsx,,,,,,,,,,,,,,,,,,2,0,92,7,1,91,A,O,A,C,c,,,,,,,,,,,,,,,,
,,,,,,,,,,,,,,,,,,2019-05-27_19h32.59.952,Probabilistic Learning,3.1.0,60,,,,,,,1,0,3,0,1,2,hiragana1.xlsx,hiragana11.xlsx,hiragana12.xlsx,,,,,,,,,,,,,,,,,,2,0,92,33,1,91,I,a,E,B,,c,,,,,,,,,,,,,,,
,,,,,,,,,,,,,,,,,,2019-05-27_19h32.59.952,Probabilistic Learning,3.1.0,60,,,,,,,1,0,3,0,1,2,hiragana1.xlsx,hiragana11.xlsx,hiragana12.xlsx,,,,,,,,,,,,,,,,,,2,0,92,45,1,91,L,d,f,d,,,,,,,,,,,,,,,,,
,,,,,,,,,,,,,,,,,,2019-05-27_19h32.59.952,Probabilistic Learning,3.1.0,60,,,,,,,1,0,3,0,1,2,hiragana1.xlsx,hiragana11.xlsx,hiragana12.xlsx,,,,,,,,,,,,,,,,,,2,0,92,36,1,91,L,a,F,B,,c,,,,,,,,,,,,,,,
,,,,,,,,,,,,,,,,,,2019-05-27_19h32.59.952,Probabilistic Learning,3.1.0,60,,,,,,,1,0,3,0,1,2,hiragana1.xlsx,hiragana11.xlsx,hiragana12.xlsx,,,,,,,,,,,,,,,,,,2,0,92,21,1,91,L,A,F,A,m,,,,,,,,,,,,,,,,
,,,,,,,,,,,,,,,,,,2019-05-27_19h32.59.952,Probabilistic Learning,3.1.0,60,,,,,,,1,0,3,0,1,2,hiragana1.xlsx,hiragana11.xlsx,hiragana12.xlsx,,,,,,,,,,,,,,,,,,2,0,92,39,1,91,I,O,e,c,,,,,,,,,,,,,,,,,
,,,,,,,,,,,,,,,,,,2019-05-27_19h32.59.952,Probabilistic Learning,3.1.0,60,,,,,,,1,0,3,0,1,2,hiragana1.xlsx,hiragana11.xlsx,hiragana12.xlsx,,,,,,,,,,,,,,,,,,2,0,92,14,1,91,A,I,A,E,c,,,,,,,,,,,,,,,,
,,,,,,,,,,,,,,,,,,2019-05-27_19h32.59.952,Probabilistic Learning,3.1.0,60,,,,,,,1,0,3,0,1,2,hiragana1.xlsx,hiragana11.xlsx,hiragana12.xlsx,,,,,,,,,,,,,,,,,,2,0,92,31,1,91,a,I,B,E,,m,,,,,,,,,,,,,,,
,,,,,,,,,,,,,,,,,,2019-05-27_19h32.59.952,Probabilistic Learning,3.1.0,60,,,,,,,1,0,3,0,1,2,hiragana1.xlsx,hiragana11.xlsx,hiragana12.xlsx,,,,,,,,,,,,,,,,,,2,0,92,0,1,91,A,a,A,B,,,,,,,,,,,,,,,,,
,,,,,,,,,,,,,,,,,,2019-05-27_19h32.59.952,Probabilistic Learning,3.1.0,60,,,,,,,1,0,3,0,1,2,hiragana1.xlsx,hiragana11.xlsx,hiragana12.xlsx,,,,,,,,,,,,,,,,,,2,0,92,23,1,91,a,O,B,C,,m,,,,,,,,,,,,,,,
,,,,,,,,,,,,,,,,,,2019-05-27_19h32.59.952,Probabilistic Learning,3.1.0,60,,,,,,,1,0,3,0,1,2,hiragana1.xlsx,hiragana11.xlsx,hiragana12.xlsx,,,,,,,,,,,,,,,,,,2,0,92,17,1,91,I,A,E,A,m,,,,,,,,,,,,,,,,
,,,,,,,,,,,,,,,,,,2019-05-27_19h32.59.952,Probabilistic Learning,3.1.0,60,,,,,,,1,0,3,0,1,2,hiragana1.xlsx,hiragana11.xlsx,hiragana12.xlsx,,,,,,,,,,,,,,,,,,2,0,92,10,1,91,A,d,A,D,c,,,,,,,,,,,,,,,,
,,,,,,,,,,,,,,,,,,2019-05-27_19h32.59.952,Probabilistic Learning,3.1.0,60,,,,,,,1,0,3,0,1,2,hiragana1.xlsx,hiragana11.xlsx,hiragana12.xlsx,,,,,,,,,,,,,,,,,,2,0,92,24,1,91,O,a,C,B,,c,,,,,,,,,,,,,,,
,,,,,,,,,,,,,,,,,,2019-05-27_19h32.59.952,Probabilistic Learning,3.1.0,60,,,,,,,1,0,3,0,1,2,hiragana1.xlsx,hiragana11.xlsx,hiragana12.xlsx,,,,,,,,,,,,,,,,,,2,0,92,3,1,91,d,O,D,C,,,,,,,,,,,,,,,,,
,,,,,,,,,,,,,,,,,,2019-05-27_19h32.59.952,Probabilistic Learning,3.1.0,60,,,,,,,1,0,3,0,1,2,hiragana1.xlsx,hiragana11.xlsx,hiragana12.xlsx,,,,,,,,,,,,,,,,,,2,0,92,5,1,91,L,I,F,E,,,,,,,,,,,,,,,,,
,,,,,,,,,,,,,,,,,,2019-05-27_19h32.59.952,Probabilistic Learning,3.1.0,60,,,,,,,1,0,3,0,1,2,hiragana1.xlsx,hiragana11.xlsx,hiragana12.xlsx,,,,,,,,,,,,,,,,,,2,0,92,37,1,91,L,a,F,B,,c,,,,,,,,,,,,,,,
,,,,,,,,,,,,,,,,,,2019-05-27_19h32.59.952,Probabilistic Learning,3.1.0,60,,,,,,,1,0,3,0,1,2,hiragana1.xlsx,hiragana11.xlsx,hiragana12.xlsx,,,,,,,,,,,,,,,,,,2,0,92,41,1,91,L,O,f,c,,,,,,,,,,,,,,,,,
,,,,,,,,,,,,,,,,,,2019-05-27_19h32.59.952,Probabilistic Learning,3.1.0,60,,,,,,,1,0,3,0,1,2,hiragana1.xlsx,hiragana11.xlsx,hiragana12.xlsx,,,,,,,,,,,,,,,,,,2,0,92,11,1,91,A,d,A,D,c,,,,,,,,,,,,,,,,
,,,,,,,,,,,,,,,,,,2019-05-27_19h32.59.952,Probabilistic Learning,3.1.0,60,,,,,,,1,0,3,0,1,2,hiragana1.xlsx,hiragana11.xlsx,hiragana12.xlsx,,,,,,,,,,,,,,,,,,2,0,92,44,1,91,d,L,d,f,,,,,,,,,,,,,,,,,
,,,,,,,,,,,,,,,,,,2019-05-27_19h32.59.952,Probabilistic Learning,3.1.0,60,,,,,,,1,0,3,0,1,2,hiragana1.xlsx,hiragana11.xlsx,hiragana12.xlsx,,,,,,,,,,,,,,,,,,2,0,92,28,1,91,d,a,D,B,,c,,,,,,,,,,,,,,,
,,,,,,,,,,,,,,,,,,2019-05-27_19h32.59.952,Probabilistic Learning,3.1.0,60,,,,,,,1,0,3,0,1,2,hiragana1.xlsx,hiragana11.xlsx,hiragana12.xlsx,,,,,,,,,,,,,,,,,,2,0,92,4,1,91,I,L,E,F,,,,,,,,,,,,,,,,,
,,,,,,,,,,,,,,,,,,2019-05-27_19h32.59.952,Probabilistic Learning,3.1.0,60,,,,,,,1,0,3,0,1,2,hiragana1.xlsx,hiragana11.xlsx,hiragana12.xlsx,,,,,,,,,,,,,,,,,,2,0,92,15,1,91,A,I,A,E,c,,,,,,,,,,,,,,,,
,,,,,,,,,,,,,,,,,,2019-05-27_19h32.59.952,Probabilistic Learning,3.1.0,60,,,,,,,1,0,3,0,1,2,hiragana1.xlsx,hiragana11.xlsx,hiragana12.xlsx,,,,,,,,,,,,,,,,,,2,0,92,34,1,91,a,L,B,F,,m,,,,,,,,,,,,,,,
,,,,,,,,,,,,,,,,,,2019-05-27_19h32.59.952,Probabilistic Learning,3.1.0,60,,,,,,,1,0,3,0,1,2,hiragana1.xlsx,hiragana11.xlsx,hiragana12.xlsx,,,,,,,,,,,,,,,,,,2,0,92,18,1,91,A,L,A,F,c,,,,,,,,,,,,,,,,
,,,,,,,,,,,,,,,,,,2019-05-27_19h32.59.952,Probabilistic Learning,3.1.0,60,,,,,,,1,0,3,0,1,2,hiragana1.xlsx,hiragana11.xlsx,hiragana12.xlsx,,,,,,,,,,,,,,,,,,,,,,,,,,,,,,space,44.641,6,13.463,1,0,2,0,1,1,Most Probable,a O I L d A,1,,
,,,,,,,,,,,,,,,,,,2019-05-27_19h32.59.952,Probabilistic Learning,3.1.0,60,,,,,,,1,0,3,0,1,2,hiragana1.xlsx,hiragana11.xlsx,hiragana12.xlsx,,,,,,,,,,,,,,,,,,,,,,,,,,,,,,,,6,2.309,1,0,2,1,1,1,Least Probable,a O I L d A,1,,
,,,,,,,,,,,,,,,,,,2019-05-27_19h32.59.952,Probabilistic Learning,3.1.0,60,,,,,,,1,0,3,0,1,2,hiragana1.xlsx,hiragana11.xlsx,hiragana12.xlsx,,,,,,,,,,,,,,,,,,,,,,,,,,,,,,,,,,,,,,,,,,,space,6.16
,,,,,,,,,,,,,,,,,,2019-05-27_19h32.59.952,Probabilistic Learning,3.1.0,60,,,space,4.192,,0,1,0,3,1,1,2,hiragana2.xlsx,hiragana21.xlsx,hiragana22.xlsx,6,0,180,16,1,179,b,o,m,,m,,,,,,,,,,,,,,,,,,,,,,,,,,,,,,,,,
,,,,,,,,,,,,,,,,,,2019-05-27_19h32.59.952,Probabilistic Learning,3.1.0,60,,,,,,0,1,0,3,1,1,2,hiragana2.xlsx,hiragana21.xlsx,hiragana22.xlsx,6,0,180,24,1,179,W,V,m,,,m,,,,,,,,,,,,,,,,,,,,,,,,,,,,,,,,
,,,,,,,,,,,,,,,,,,2019-05-27_19h32.59.952,Probabilistic Learning,3.1.0,60,,,,,,0,1,0,3,1,1,2,hiragana2.xlsx,hiragana21.xlsx,hiragana22.xlsx,6,0,180,28,1,179,W,V,c,,,m,,,,,,,,,,,,,,,,,,,,,,,,,,,,,,,,
,,,,,,,,,,,,,,,,,,2019-05-27_19h32.59.952,Probabilistic Learning,3.1.0,60,,,,,,0,1,0,3,1,1,2,hiragana2.xlsx,hiragana21.xlsx,hiragana22.xlsx,6,0,180,18,1,179,b,o,c,,m,,,,,,,,,,,,,,,,,,,,,,,,,,,,,,,,,
,,,,,,,,,,,,,,,,,,2019-05-27_19h32.59.952,Probabilistic Learning,3.1.0,60,,,,,,0,1,0,3,1,1,2,hiragana2.xlsx,hiragana21.xlsx,hiragana22.xlsx,6,0,180,4,1,179,J,s,m,m,,,,,,,,,,,,,,,,,,,,,,,,,,,,,,,,,,
,,,,,,,,,,,,,,,,,,2019-05-27_19h32.59.952,Probabilistic Learning,3.1.0,60,,,,,,0,1,0,3,1,1,2,hiragana2.xlsx,hiragana21.xlsx,hiragana22.xlsx,6,0,180,7,1,179,J,s,m,m,,,,,,,,,,,,,,,,,,,,,,,,,,,,,,,,,,
,,,,,,,,,,,,,,,,,,2019-05-27_19h32.59.952,Probabilistic Learning,3.1.0,60,,,,,,0,1,0,3,1,1,2,hiragana2.xlsx,hiragana21.xlsx,hiragana22.xlsx,6,0,180,3,1,179,s,J,c,c,,,,,,,,,,,,,,,,,,,,,,,,,,,,,,,,,,
,,,,,,,,,,,,,,,,,,2019-05-27_19h32.59.952,Probabilistic Learning,3.1.0,60,,,,,,0,1,0,3,1,1,2,hiragana2.xlsx,hiragana21.xlsx,hiragana22.xlsx,6,0,180,27,1,179,V,W,m,,,c,,,,,,,,,,,,,,,,,,,,,,,,,,,,,,,,
,,,,,,,,,,,,,,,,,,2019-05-27_19h32.59.952,Probabilistic Learning,3.1.0,60,,,,,,0,1,0,3,1,1,2,hiragana2.xlsx,hiragana21.xlsx,hiragana22.xlsx,6,0,180,10,1,179,o,b,c,,c,,,,,,,,,,,,,,,,,,,,,,,,,,,,,,,,,
,,,,,,,,,,,,,,,,,,2019-05-27_19h32.59.952,Probabilistic Learning,3.1.0,60,,,,,,0,1,0,3,1,1,2,hiragana2.xlsx,hiragana21.xlsx,hiragana22.xlsx,6,0,180,13,1,179,o,b,c,,c,,,,,,,,,,,,,,,,,,,,,,,,,,,,,,,,,
,,,,,,,,,,,,,,,,,,2019-05-27_19h32.59.952,Probabilistic Learning,3.1.0,60,,,,,,0,1,0,3,1,1,2,hiragana2.xlsx,hiragana21.xlsx,hiragana22.xlsx,6,0,180,17,1,179,b,o,c,,m,,,,,,,,,,,,,,,,,,,,,,,,,,,,,,,,,
,,,,,,,,,,,,,,,,,,2019-05-27_19h32.59.952,Probabilistic Learning,3.1.0,60,,,,,,0,1,0,3,1,1,2,hiragana2.xlsx,hiragana21.xlsx,hiragana22.xlsx,6,0,180,5,1,179,J,s,m,m,,,,,,,,,,,,,,,,,,,,,,,,,,,,,,,,,,
,,,,,,,,,,,,,,,,,,2019-05-27_19h32.59.952,Probabilistic Learning,3.1.0,60,,,,,,0,1,0,3,1,1,2,hiragana2.xlsx,hiragana21.xlsx,hiragana22.xlsx,6,0,180,2,1,179,s,J,c,c,,,,,,,,,,,,,,,,,,,,,,,,,,,,,,,,,,
,,,,,,,,,,,,,,,,,,2019-05-27_19h32.59.952,Probabilistic Learning,3.1.0,60,,,,,,0,1,0,3,1,1,2,hiragana2.xlsx,hiragana21.xlsx,hiragana22.xlsx,6,0,180,26,1,179,V,W,m,,,c,,,,,,,,,,,,,,,,,,,,,,,,,,,,,,,,
,,,,,,,,,,,,,,,,,,2019-05-27_19h32.59.952,Probabilistic Learning,3.1.0,60,,,,,,0,1,0,3,1,1,2,hiragana2.xlsx,hiragana21.xlsx,hiragana22.xlsx,6,0,180,1,1,179,s,J,c,c,,,,,,,,,,,,,,,,,,,,,,,,,,,,,,,,,,
,,,,,,,,,,,,,,,,,,2019-05-27_19h32.59.952,Probabilistic Learning,3.1.0,60,,,,,,0,1,0,3,1,1,2,hiragana2.xlsx,hiragana21.xlsx,hiragana22.xlsx,6,0,180,8,1,179,s,J,m,c,,,,,,,,,,,,,,,,,,,,,,,,,,,,,,,,,,
,,,,,,,,,,,,,,,,,,2019-05-27_19h32.59.952,Probabilistic Learning,3.1.0,60,,,,,,0,1,0,3,1,1,2,hiragana2.xlsx,hiragana21.xlsx,hiragana22.xlsx,6,0,180,9,1,179,J,s,c,m,,,,,,,,,,,,,,,,,,,,,,,,,,,,,,,,,,
,,,,,,,,,,,,,,,,,,2019-05-27_19h32.59.952,Probabilistic Learning,3.1.0,60,,,,,,0,1,0,3,1,1,2,hiragana2.xlsx,hiragana21.xlsx,hiragana22.xlsx,6,0,180,14,1,179,b,o,m,,m,,,,,,,,,,,,,,,,,,,,,,,,,,,,,,,,,
,,,,,,,,,,,,,,,,,,2019-05-27_19h32.59.952,Probabilistic Learning,3.1.0,60,,,,,,0,1,0,3,1,1,2,hiragana2.xlsx,hiragana21.xlsx,hiragana22.xlsx,6,0,180,20,1,179,V,W,c,,,c,,,,,,,,,,,,,,,,,,,,,,,,,,,,,,,,
,,,,,,,,,,,,,,,,,,2019-05-27_19h32.59.952,Probabilistic Learning,3.1.0,60,,,,,,0,1,0,3,1,1,2,hiragana2.xlsx,hiragana21.xlsx,hiragana22.xlsx,6,0,180,19,1,179,o,b,m,,c,,,,,,,,,,,,,,,,,,,,,,,,,,,,,,,,,
,,,,,,,,,,,,,,,,,,2019-05-27_19h32.59.952,Probabilistic Learning,3.1.0,60,,,,,,0,1,0,3,1,1,2,hiragana2.xlsx,hiragana21.xlsx,hiragana22.xlsx,6,0,180,25,1,179,W,V,m,,,m,,,,,,,,,,,,,,,,,,,,,,,,,,,,,,,,
,,,,,,,,,,,,,,,,,,2019-05-27_19h32.59.952,Probabilistic Learning,3.1.0,60,,,,,,0,1,0,3,1,1,2,hiragana2.xlsx,hiragana21.xlsx,hiragana22.xlsx,6,0,180,21,1,179,V,W,c,,,c,,,,,,,,,,,,,,,,,,,,,,,,,,,,,,,,
,,,,,,,,,,,,,,,,,,2019-05-27_19h32.59.952,Probabilistic Learning,3.1.0,60,,,,,,0,1,0,3,1,1,2,hiragana2.xlsx,hiragana21.xlsx,hiragana22.xlsx,6,0,180,11,1,179,o,b,c,,c,,,,,,,,,,,,,,,,,,,,,,,,,,,,,,,,,
,,,,,,,,,,,,,,,,,,2019-05-27_19h32.59.952,Probabilistic Learning,3.1.0,60,,,,,,0,1,0,3,1,1,2,hiragana2.xlsx,hiragana21.xlsx,hiragana22.xlsx,6,0,180,29,1,179,W,V,c,,,m,,,,,,,,,,,,,,,,,,,,,,,,,,,,,,,,
,,,,,,,,,,,,,,,,,,2019-05-27_19h32.59.952,Probabilistic Learning,3.1.0,60,,,,,,0,1,0,3,1,1,2,hiragana2.xlsx,hiragana21.xlsx,hiragana22.xlsx,6,0,180,15,1,179,b,o,m,,m,,,,,,,,,,,,,,,,,,,,,,,,,,,,,,,,,
,,,,,,,,,,,,,,,,,,2019-05-27_19h32.59.952,Probabilistic Learning,3.1.0,60,,,,,,0,1,0,3,1,1,2,hiragana2.xlsx,hiragana21.xlsx,hiragana22.xlsx,6,0,180,0,1,179,s,J,c,c,,,,,,,,,,,,,,,,,,,,,,,,,,,,,,,,,,
,,,,,,,,,,,,,,,,,,2019-05-27_19h32.59.952,Probabilistic Learning,3.1.0,60,,,,,,0,1,0,3,1,1,2,hiragana2.xlsx,hiragana21.xlsx,hiragana22.xlsx,6,0,180,6,1,179,J,s,m,m,,,,,,,,,,,,,,,,,,,,,,,,,,,,,,,,,,
,,,,,,,,,,,,,,,,,,2019-05-27_19h32.59.952,Probabilistic Learning,3.1.0,60,,,,,,0,1,0,3,1,1,2,hiragana2.xlsx,hiragana21.xlsx,hiragana22.xlsx,6,0,180,23,1,179,W,V,m,,,m,,,,,,,,,,,,,,,,,,,,,,,,,,,,,,,,
,,,,,,,,,,,,,,,,,,2019-05-27_19h32.59.952,Probabilistic Learning,3.1.0,60,,,,,,0,1,0,3,1,1,2,hiragana2.xlsx,hiragana21.xlsx,hiragana22.xlsx,6,0,180,12,1,179,o,b,c,,c,,,,,,,,,,,,,,,,,,,,,,,,,,,,,,,,,
,,,,,,,,,,,,,,,,,,2019-05-27_19h32.59.952,Probabilistic Learning,3.1.0,60,,,,,,0,1,0,3,1,1,2,hiragana2.xlsx,hiragana21.xlsx,hiragana22.xlsx,6,0,180,22,1,179,V,W,c,,,c,,,,,,,,,,,,,,,,,,,,,,,,,,,,,,,,
,,,,,,,,,,,,,,,,,,2019-05-27_19h32.59.952,Probabilistic Learning,3.1.0,60,,,,,,0,1,0,3,1,1,2,hiragana2.xlsx,hiragana21.xlsx,hiragana22.xlsx,6,0,180,12,1,179,o,b,c,,c,,,,,,,,,,,,,,,,,,,,,,,,,,,,,,,,,
,,,,,,,,,,,,,,,,,,2019-05-27_19h32.59.952,Probabilistic Learning,3.1.0,60,,,,,,0,1,0,3,1,1,2,hiragana2.xlsx,hiragana21.xlsx,hiragana22.xlsx,6,0,180,15,1,179,b,o,m,,m,,,,,,,,,,,,,,,,,,,,,,,,,,,,,,,,,
,,,,,,,,,,,,,,,,,,2019-05-27_19h32.59.952,Probabilistic Learning,3.1.0,60,,,,,,0,1,0,3,1,1,2,hiragana2.xlsx,hiragana21.xlsx,hiragana22.xlsx,6,0,180,28,1,179,W,V,c,,,m,,,,,,,,,,,,,,,,,,,,,,,,,,,,,,,,
,,,,,,,,,,,,,,,,,,2019-05-27_19h32.59.952,Probabilistic Learning,3.1.0,60,,,,,,0,1,0,3,1,1,2,hiragana2.xlsx,hiragana21.xlsx,hiragana22.xlsx,6,0,180,5,1,179,J,s,m,m,,,,,,,,,,,,,,,,,,,,,,,,,,,,,,,,,,
,,,,,,,,,,,,,,,,,,2019-05-27_19h32.59.952,Probabilistic Learning,3.1.0,60,,,,,,0,1,0,3,1,1,2,hiragana2.xlsx,hiragana21.xlsx,hiragana22.xlsx,6,0,180,16,1,179,b,o,m,,m,,,,,,,,,,,,,,,,,,,,,,,,,,,,,,,,,
,,,,,,,,,,,,,,,,,,2019-05-27_19h32.59.952,Probabilistic Learning,3.1.0,60,,,,,,0,1,0,3,1,1,2,hiragana2.xlsx,hiragana21.xlsx,hiragana22.xlsx,6,0,180,9,1,179,J,s,c,m,,,,,,,,,,,,,,,,,,,,,,,,,,,,,,,,,,
,,,,,,,,,,,,,,,,,,2019-05-27_19h32.59.952,Probabilistic Learning,3.1.0,60,,,,,,0,1,0,3,1,1,2,hiragana2.xlsx,hiragana21.xlsx,hiragana22.xlsx,6,0,180,23,1,179,W,V,m,,,m,,,,,,,,,,,,,,,,,,,,,,,,,,,,,,,,
,,,,,,,,,,,,,,,,,,2019-05-27_19h32.59.952,Probabilistic Learning,3.1.0,60,,,,,,0,1,0,3,1,1,2,hiragana2.xlsx,hiragana21.xlsx,hiragana22.xlsx,6,0,180,27,1,179,V,W,m,,,c,,,,,,,,,,,,,,,,,,,,,,,,,,,,,,,,
,,,,,,,,,,,,,,,,,,2019-05-27_19h32.59.952,Probabilistic Learning,3.1.0,60,,,,,,0,1,0,3,1,1,2,hiragana2.xlsx,hiragana21.xlsx,hiragana22.xlsx,6,0,180,8,1,179,s,J,m,c,,,,,,,,,,,,,,,,,,,,,,,,,,,,,,,,,,
,,,,,,,,,,,,,,,,,,2019-05-27_19h32.59.952,Probabilistic Learning,3.1.0,60,,,,,,0,1,0,3,1,1,2,hiragana2.xlsx,hiragana21.xlsx,hiragana22.xlsx,6,0,180,20,1,179,V,W,c,,,c,,,,,,,,,,,,,,,,,,,,,,,,,,,,,,,,
,,,,,,,,,,,,,,,,,,2019-05-27_19h32.59.952,Probabilistic Learning,3.1.0,60,,,,,,0,1,0,3,1,1,2,hiragana2.xlsx,hiragana21.xlsx,hiragana22.xlsx,6,0,180,22,1,179,V,W,c,,,c,,,,,,,,,,,,,,,,,,,,,,,,,,,,,,,,
,,,,,,,,,,,,,,,,,,2019-05-27_19h32.59.952,Probabilistic Learning,3.1.0,60,,,,,,0,1,0,3,1,1,2,hiragana2.xlsx,hiragana21.xlsx,hiragana22.xlsx,6,0,180,26,1,179,V,W,m,,,c,,,,,,,,,,,,,,,,,,,,,,,,,,,,,,,,
,,,,,,,,,,,,,,,,,,2019-05-27_19h32.59.952,Probabilistic Learning,3.1.0,60,,,,,,0,1,0,3,1,1,2,hiragana2.xlsx,hiragana21.xlsx,hiragana22.xlsx,6,0,180,19,1,179,o,b,m,,c,,,,,,,,,,,,,,,,,,,,,,,,,,,,,,,,,
,,,,,,,,,,,,,,,,,,2019-05-27_19h32.59.952,Probabilistic Learning,3.1.0,60,,,,,,0,1,0,3,1,1,2,hiragana2.xlsx,hiragana21.xlsx,hiragana22.xlsx,6,0,180,18,1,179,b,o,c,,m,,,,,,,,,,,,,,,,,,,,,,,,,,,,,,,,,
,,,,,,,,,,,,,,,,,,2019-05-27_19h32.59.952,Probabilistic Learning,3.1.0,60,,,,,,0,1,0,3,1,1,2,hiragana2.xlsx,hiragana21.xlsx,hiragana22.xlsx,6,0,180,0,1,179,s,J,c,c,,,,,,,,,,,,,,,,,,,,,,,,,,,,,,,,,,
,,,,,,,,,,,,,,,,,,2019-05-27_19h32.59.952,Probabilistic Learning,3.1.0,60,,,,,,0,1,0,3,1,1,2,hiragana2.xlsx,hiragana21.xlsx,hiragana22.xlsx,6,0,180,1,1,179,s,J,c,c,,,,,,,,,,,,,,,,,,,,,,,,,,,,,,,,,,
,,,,,,,,,,,,,,,,,,2019-05-27_19h32.59.952,Probabilistic Learning,3.1.0,60,,,,,,0,1,0,3,1,1,2,hiragana2.xlsx,hiragana21.xlsx,hiragana22.xlsx,6,0,180,21,1,179,V,W,c,,,c,,,,,,,,,,,,,,,,,,,,,,,,,,,,,,,,
,,,,,,,,,,,,,,,,,,2019-05-27_19h32.59.952,Probabilistic Learning,3.1.0,60,,,,,,0,1,0,3,1,1,2,hiragana2.xlsx,hiragana21.xlsx,hiragana22.xlsx,6,0,180,25,1,179,W,V,m,,,m,,,,,,,,,,,,,,,,,,,,,,,,,,,,,,,,
,,,,,,,,,,,,,,,,,,2019-05-27_19h32.59.952,Probabilistic Learning,3.1.0,60,,,,,,0,1,0,3,1,1,2,hiragana2.xlsx,hiragana21.xlsx,hiragana22.xlsx,6,0,180,3,1,179,s,J,c,c,,,,,,,,,,,,,,,,,,,,,,,,,,,,,,,,,,
,,,,,,,,,,,,,,,,,,2019-05-27_19h32.59.952,Probabilistic Learning,3.1.0,60,,,,,,0,1,0,3,1,1,2,hiragana2.xlsx,hiragana21.xlsx,hiragana22.xlsx,6,0,180,17,1,179,b,o,c,,m,,,,,,,,,,,,,,,,,,,,,,,,,,,,,,,,,
,,,,,,,,,,,,,,,,,,2019-05-27_19h32.59.952,Probabilistic Learning,3.1.0,60,,,,,,0,1,0,3,1,1,2,hiragana2.xlsx,hiragana21.xlsx,hiragana22.xlsx,6,0,180,10,1,179,o,b,c,,c,,,,,,,,,,,,,,,,,,,,,,,,,,,,,,,,,
,,,,,,,,,,,,,,,,,,2019-05-27_19h32.59.952,Probabilistic Learning,3.1.0,60,,,,,,0,1,0,3,1,1,2,hiragana2.xlsx,hiragana21.xlsx,hiragana22.xlsx,6,0,180,7,1,179,J,s,m,m,,,,,,,,,,,,,,,,,,,,,,,,,,,,,,,,,,
,,,,,,,,,,,,,,,,,,2019-05-27_19h32.59.952,Probabilistic Learning,3.1.0,60,,,,,,0,1,0,3,1,1,2,hiragana2.xlsx,hiragana21.xlsx,hiragana22.xlsx,6,0,180,24,1,179,W,V,m,,,m,,,,,,,,,,,,,,,,,,,,,,,,,,,,,,,,
,,,,,,,,,,,,,,,,,,2019-05-27_19h32.59.952,Probabilistic Learning,3.1.0,60,,,,,,0,1,0,3,1,1,2,hiragana2.xlsx,hiragana21.xlsx,hiragana22.xlsx,6,0,180,6,1,179,J,s,m,m,,,,,,,,,,,,,,,,,,,,,,,,,,,,,,,,,,
,,,,,,,,,,,,,,,,,,2019-05-27_19h32.59.952,Probabilistic Learning,3.1.0,60,,,,,,0,1,0,3,1,1,2,hiragana2.xlsx,hiragana21.xlsx,hiragana22.xlsx,6,0,180,11,1,179,o,b,c,,c,,,,,,,,,,,,,,,,,,,,,,,,,,,,,,,,,
,,,,,,,,,,,,,,,,,,2019-05-27_19h32.59.952,Probabilistic Learning,3.1.0,60,,,,,,0,1,0,3,1,1,2,hiragana2.xlsx,hiragana21.xlsx,hiragana22.xlsx,6,0,180,13,1,179,o,b,c,,c,,,,,,,,,,,,,,,,,,,,,,,,,,,,,,,,,
,,,,,,,,,,,,,,,,,,2019-05-27_19h32.59.952,Probabilistic Learning,3.1.0,60,,,,,,0,1,0,3,1,1,2,hiragana2.xlsx,hiragana21.xlsx,hiragana22.xlsx,6,0,180,29,1,179,W,V,c,,,m,,,,,,,,,,,,,,,,,,,,,,,,,,,,,,,,
,,,,,,,,,,,,,,,,,,2019-05-27_19h32.59.952,Probabilistic Learning,3.1.0,60,,,,,,0,1,0,3,1,1,2,hiragana2.xlsx,hiragana21.xlsx,hiragana22.xlsx,6,0,180,14,1,179,b,o,m,,m,,,,,,,,,,,,,,,,,,,,,,,,,,,,,,,,,
,,,,,,,,,,,,,,,,,,2019-05-27_19h32.59.952,Probabilistic Learning,3.1.0,60,,,,,,0,1,0,3,1,1,2,hiragana2.xlsx,hiragana21.xlsx,hiragana22.xlsx,6,0,180,4,1,179,J,s,m,m,,,,,,,,,,,,,,,,,,,,,,,,,,,,,,,,,,
,,,,,,,,,,,,,,,,,,2019-05-27_19h32.59.952,Probabilistic Learning,3.1.0,60,,,,,,0,1,0,3,1,1,2,hiragana2.xlsx,hiragana21.xlsx,hiragana22.xlsx,6,0,180,2,1,179,s,J,c,c,,,,,,,,,,,,,,,,,,,,,,,,,,,,,,,,,,
,,,,,,,,,,,,,,,,,,2019-05-27_19h32.59.952,Probabilistic Learning,3.1.0,60,,,,,,0,1,0,3,1,1,2,hiragana2.xlsx,hiragana21.xlsx,hiragana22.xlsx,6,0,180,20,1,179,V,W,c,,,c,,,,,,,,,,,,,,,,,,,,,,,,,,,,,,,,
,,,,,,,,,,,,,,,,,,2019-05-27_19h32.59.952,Probabilistic Learning,3.1.0,60,,,,,,0,1,0,3,1,1,2,hiragana2.xlsx,hiragana21.xlsx,hiragana22.xlsx,6,0,180,22,1,179,V,W,c,,,c,,,,,,,,,,,,,,,,,,,,,,,,,,,,,,,,
,,,,,,,,,,,,,,,,,,2019-05-27_19h32.59.952,Probabilistic Learning,3.1.0,60,,,,,,0,1,0,3,1,1,2,hiragana2.xlsx,hiragana21.xlsx,hiragana22.xlsx,6,0,180,11,1,179,o,b,c,,c,,,,,,,,,,,,,,,,,,,,,,,,,,,,,,,,,
,,,,,,,,,,,,,,,,,,2019-05-27_19h32.59.952,Probabilistic Learning,3.1.0,60,,,,,,0,1,0,3,1,1,2,hiragana2.xlsx,hiragana21.xlsx,hiragana22.xlsx,6,0,180,17,1,179,b,o,c,,m,,,,,,,,,,,,,,,,,,,,,,,,,,,,,,,,,
,,,,,,,,,,,,,,,,,,2019-05-27_19h32.59.952,Probabilistic Learning,3.1.0,60,,,,,,0,1,0,3,1,1,2,hiragana2.xlsx,hiragana21.xlsx,hiragana22.xlsx,6,0,180,28,1,179,W,V,c,,,m,,,,,,,,,,,,,,,,,,,,,,,,,,,,,,,,
,,,,,,,,,,,,,,,,,,2019-05-27_19h32.59.952,Probabilistic Learning,3.1.0,60,,,,,,0,1,0,3,1,1,2,hiragana2.xlsx,hiragana21.xlsx,hiragana22.xlsx,6,0,180,15,1,179,b,o,m,,m,,,,,,,,,,,,,,,,,,,,,,,,,,,,,,,,,
,,,,,,,,,,,,,,,,,,2019-05-27_19h32.59.952,Probabilistic Learning,3.1.0,60,,,,,,0,1,0,3,1,1,2,hiragana2.xlsx,hiragana21.xlsx,hiragana22.xlsx,6,0,180,6,1,179,J,s,m,m,,,,,,,,,,,,,,,,,,,,,,,,,,,,,,,,,,
,,,,,,,,,,,,,,,,,,2019-05-27_19h32.59.952,Probabilistic Learning,3.1.0,60,,,,,,0,1,0,3,1,1,2,hiragana2.xlsx,hiragana21.xlsx,hiragana22.xlsx,6,0,180,19,1,179,o,b,m,,c,,,,,,,,,,,,,,,,,,,,,,,,,,,,,,,,,
,,,,,,,,,,,,,,,,,,2019-05-27_19h32.59.952,Probabilistic Learning,3.1.0,60,,,,,,0,1,0,3,1,1,2,hiragana2.xlsx,hiragana21.xlsx,hiragana22.xlsx,6,0,180,7,1,179,J,s,m,m,,,,,,,,,,,,,,,,,,,,,,,,,,,,,,,,,,
,,,,,,,,,,,,,,,,,,2019-05-27_19h32.59.952,Probabilistic Learning,3.1.0,60,,,,,,0,1,0,3,1,1,2,hiragana2.xlsx,hiragana21.xlsx,hiragana22.xlsx,6,0,180,1,1,179,s,J,c,c,,,,,,,,,,,,,,,,,,,,,,,,,,,,,,,,,,
,,,,,,,,,,,,,,,,,,2019-05-27_19h32.59.952,Probabilistic Learning,3.1.0,60,,,,,,0,1,0,3,1,1,2,hiragana2.xlsx,hiragana21.xlsx,hiragana22.xlsx,6,0,180,25,1,179,W,V,m,,,m,,,,,,,,,,,,,,,,,,,,,,,,,,,,,,,,
,,,,,,,,,,,,,,,,,,2019-05-27_19h32.59.952,Probabilistic Learning,3.1.0,60,,,,,,0,1,0,3,1,1,2,hiragana2.xlsx,hiragana21.xlsx,hiragana22.xlsx,6,0,180,9,1,179,J,s,c,m,,,,,,,,,,,,,,,,,,,,,,,,,,,,,,,,,,
,,,,,,,,,,,,,,,,,,2019-05-27_19h32.59.952,Probabilistic Learning,3.1.0,60,,,,,,0,1,0,3,1,1,2,hiragana2.xlsx,hiragana21.xlsx,hiragana22.xlsx,6,0,180,8,1,179,s,J,m,c,,,,,,,,,,,,,,,,,,,,,,,,,,,,,,,,,,
,,,,,,,,,,,,,,,,,,2019-05-27_19h32.59.952,Probabilistic Learning,3.1.0,60,,,,,,0,1,0,3,1,1,2,hiragana2.xlsx,hiragana21.xlsx,hiragana22.xlsx,6,0,180,14,1,179,b,o,m,,m,,,,,,,,,,,,,,,,,,,,,,,,,,,,,,,,,
,,,,,,,,,,,,,,,,,,2019-05-27_19h32.59.952,Probabilistic Learning,3.1.0,60,,,,,,0,1,0,3,1,1,2,hiragana2.xlsx,hiragana21.xlsx,hiragana22.xlsx,6,0,180,3,1,179,s,J,c,c,,,,,,,,,,,,,,,,,,,,,,,,,,,,,,,,,,
,,,,,,,,,,,,,,,,,,2019-05-27_19h32.59.952,Probabilistic Learning,3.1.0,60,,,,,,0,1,0,3,1,1,2,hiragana2.xlsx,hiragana21.xlsx,hiragana22.xlsx,6,0,180,0,1,179,s,J,c,c,,,,,,,,,,,,,,,,,,,,,,,,,,,,,,,,,,
,,,,,,,,,,,,,,,,,,2019-05-27_19h32.59.952,Probabilistic Learning,3.1.0,60,,,,,,0,1,0,3,1,1,2,hiragana2.xlsx,hiragana21.xlsx,hiragana22.xlsx,6,0,180,21,1,179,V,W,c,,,c,,,,,,,,,,,,,,,,,,,,,,,,,,,,,,,,
,,,,,,,,,,,,,,,,,,2019-05-27_19h32.59.952,Probabilistic Learning,3.1.0,60,,,,,,0,1,0,3,1,1,2,hiragana2.xlsx,hiragana21.xlsx,hiragana22.xlsx,6,0,180,4,1,179,J,s,m,m,,,,,,,,,,,,,,,,,,,,,,,,,,,,,,,,,,
,,,,,,,,,,,,,,,,,,2019-05-27_19h32.59.952,Probabilistic Learning,3.1.0,60,,,,,,0,1,0,3,1,1,2,hiragana2.xlsx,hiragana21.xlsx,hiragana22.xlsx,6,0,180,27,1,179,V,W,m,,,c,,,,,,,,,,,,,,,,,,,,,,,,,,,,,,,,
,,,,,,,,,,,,,,,,,,2019-05-27_19h32.59.952,Probabilistic Learning,3.1.0,60,,,,,,0,1,0,3,1,1,2,hiragana2.xlsx,hiragana21.xlsx,hiragana22.xlsx,6,0,180,29,1,179,W,V,c,,,m,,,,,,,,,,,,,,,,,,,,,,,,,,,,,,,,
,,,,,,,,,,,,,,,,,,2019-05-27_19h32.59.952,Probabilistic Learning,3.1.0,60,,,,,,0,1,0,3,1,1,2,hiragana2.xlsx,hiragana21.xlsx,hiragana22.xlsx,6,0,180,26,1,179,V,W,m,,,c,,,,,,,,,,,,,,,,,,,,,,,,,,,,,,,,
,,,,,,,,,,,,,,,,,,2019-05-27_19h32.59.952,Probabilistic Learning,3.1.0,60,,,,,,0,1,0,3,1,1,2,hiragana2.xlsx,hiragana21.xlsx,hiragana22.xlsx,6,0,180,10,1,179,o,b,c,,c,,,,,,,,,,,,,,,,,,,,,,,,,,,,,,,,,
,,,,,,,,,,,,,,,,,,2019-05-27_19h32.59.952,Probabilistic Learning,3.1.0,60,,,,,,0,1,0,3,1,1,2,hiragana2.xlsx,hiragana21.xlsx,hiragana22.xlsx,6,0,180,12,1,179,o,b,c,,c,,,,,,,,,,,,,,,,,,,,,,,,,,,,,,,,,
,,,,,,,,,,,,,,,,,,2019-05-27_19h32.59.952,Probabilistic Learning,3.1.0,60,,,,,,0,1,0,3,1,1,2,hiragana2.xlsx,hiragana21.xlsx,hiragana22.xlsx,6,0,180,13,1,179,o,b,c,,c,,,,,,,,,,,,,,,,,,,,,,,,,,,,,,,,,
,,,,,,,,,,,,,,,,,,2019-05-27_19h32.59.952,Probabilistic Learning,3.1.0,60,,,,,,0,1,0,3,1,1,2,hiragana2.xlsx,hiragana21.xlsx,hiragana22.xlsx,6,0,180,2,1,179,s,J,c,c,,,,,,,,,,,,,,,,,,,,,,,,,,,,,,,,,,
,,,,,,,,,,,,,,,,,,2019-05-27_19h32.59.952,Probabilistic Learning,3.1.0,60,,,,,,0,1,0,3,1,1,2,hiragana2.xlsx,hiragana21.xlsx,hiragana22.xlsx,6,0,180,23,1,179,W,V,m,,,m,,,,,,,,,,,,,,,,,,,,,,,,,,,,,,,,
,,,,,,,,,,,,,,,,,,2019-05-27_19h32.59.952,Probabilistic Learning,3.1.0,60,,,,,,0,1,0,3,1,1,2,hiragana2.xlsx,hiragana21.xlsx,hiragana22.xlsx,6,0,180,5,1,179,J,s,m,m,,,,,,,,,,,,,,,,,,,,,,,,,,,,,,,,,,
,,,,,,,,,,,,,,,,,,2019-05-27_19h32.59.952,Probabilistic Learning,3.1.0,60,,,,,,0,1,0,3,1,1,2,hiragana2.xlsx,hiragana21.xlsx,hiragana22.xlsx,6,0,180,18,1,179,b,o,c,,m,,,,,,,,,,,,,,,,,,,,,,,,,,,,,,,,,
,,,,,,,,,,,,,,,,,,2019-05-27_19h32.59.952,Probabilistic Learning,3.1.0,60,,,,,,0,1,0,3,1,1,2,hiragana2.xlsx,hiragana21.xlsx,hiragana22.xlsx,6,0,180,16,1,179,b,o,m,,m,,,,,,,,,,,,,,,,,,,,,,,,,,,,,,,,,
,,,,,,,,,,,,,,,,,,2019-05-27_19h32.59.952,Probabilistic Learning,3.1.0,60,,,,,,0,1,0,3,1,1,2,hiragana2.xlsx,hiragana21.xlsx,hiragana22.xlsx,6,0,180,24,1,179,W,V,m,,,m,,,,,,,,,,,,,,,,,,,,,,,,,,,,,,,,
,,,,,,,,,,,,,,,,,,2019-05-27_19h32.59.952,Probabilistic Learning,3.1.0,60,,,,,,0,1,0,3,1,1,2,hiragana2.xlsx,hiragana21.xlsx,hiragana22.xlsx,6,0,180,12,1,179,o,b,c,,c,,,,,,,,,,,,,,,,,,,,,,,,,,,,,,,,,
,,,,,,,,,,,,,,,,,,2019-05-27_19h32.59.952,Probabilistic Learning,3.1.0,60,,,,,,0,1,0,3,1,1,2,hiragana2.xlsx,hiragana21.xlsx,hiragana22.xlsx,6,0,180,27,1,179,V,W,m,,,c,,,,,,,,,,,,,,,,,,,,,,,,,,,,,,,,
,,,,,,,,,,,,,,,,,,2019-05-27_19h32.59.952,Probabilistic Learning,3.1.0,60,,,,,,0,1,0,3,1,1,2,hiragana2.xlsx,hiragana21.xlsx,hiragana22.xlsx,6,0,180,13,1,179,o,b,c,,c,,,,,,,,,,,,,,,,,,,,,,,,,,,,,,,,,
,,,,,,,,,,,,,,,,,,2019-05-27_19h32.59.952,Probabilistic Learning,3.1.0,60,,,,,,0,1,0,3,1,1,2,hiragana2.xlsx,hiragana21.xlsx,hiragana22.xlsx,6,0,180,18,1,179,b,o,c,,m,,,,,,,,,,,,,,,,,,,,,,,,,,,,,,,,,
,,,,,,,,,,,,,,,,,,2019-05-27_19h32.59.952,Probabilistic Learning,3.1.0,60,,,,,,0,1,0,3,1,1,2,hiragana2.xlsx,hiragana21.xlsx,hiragana22.xlsx,6,0,180,4,1,179,J,s,m,m,,,,,,,,,,,,,,,,,,,,,,,,,,,,,,,,,,
,,,,,,,,,,,,,,,,,,2019-05-27_19h32.59.952,Probabilistic Learning,3.1.0,60,,,,,,0,1,0,3,1,1,2,hiragana2.xlsx,hiragana21.xlsx,hiragana22.xlsx,6,0,180,16,1,179,b,o,m,,m,,,,,,,,,,,,,,,,,,,,,,,,,,,,,,,,,
,,,,,,,,,,,,,,,,,,2019-05-27_19h32.59.952,Probabilistic Learning,3.1.0,60,,,,,,0,1,0,3,1,1,2,hiragana2.xlsx,hiragana21.xlsx,hiragana22.xlsx,6,0,180,7,1,179,J,s,m,m,,,,,,,,,,,,,,,,,,,,,,,,,,,,,,,,,,
,,,,,,,,,,,,,,,,,,2019-05-27_19h32.59.952,Probabilistic Learning,3.1.0,60,,,,,,0,1,0,3,1,1,2,hiragana2.xlsx,hiragana21.xlsx,hiragana22.xlsx,6,0,180,6,1,179,J,s,m,m,,,,,,,,,,,,,,,,,,,,,,,,,,,,,,,,,,
,,,,,,,,,,,,,,,,,,2019-05-27_19h32.59.952,Probabilistic Learning,3.1.0,60,,,,,,0,1,0,3,1,1,2,hiragana2.xlsx,hiragana21.xlsx,hiragana22.xlsx,6,0,180,11,1,179,o,b,c,,c,,,,,,,,,,,,,,,,,,,,,,,,,,,,,,,,,
,,,,,,,,,,,,,,,,,,2019-05-27_19h32.59.952,Probabilistic Learning,3.1.0,60,,,,,,0,1,0,3,1,1,2,hiragana2.xlsx,hiragana21.xlsx,hiragana22.xlsx,6,0,180,1,1,179,s,J,c,c,,,,,,,,,,,,,,,,,,,,,,,,,,,,,,,,,,
,,,,,,,,,,,,,,,,,,2019-05-27_19h32.59.952,Probabilistic Learning,3.1.0,60,,,,,,0,1,0,3,1,1,2,hiragana2.xlsx,hiragana21.xlsx,hiragana22.xlsx,6,0,180,2,1,179,s,J,c,c,,,,,,,,,,,,,,,,,,,,,,,,,,,,,,,,,,
,,,,,,,,,,,,,,,,,,2019-05-27_19h32.59.952,Probabilistic Learning,3.1.0,60,,,,,,0,1,0,3,1,1,2,hiragana2.xlsx,hiragana21.xlsx,hiragana22.xlsx,6,0,180,21,1,179,V,W,c,,,c,,,,,,,,,,,,,,,,,,,,,,,,,,,,,,,,
,,,,,,,,,,,,,,,,,,2019-05-27_19h32.59.952,Probabilistic Learning,3.1.0,60,,,,,,0,1,0,3,1,1,2,hiragana2.xlsx,hiragana21.xlsx,hiragana22.xlsx,6,0,180,8,1,179,s,J,m,c,,,,,,,,,,,,,,,,,,,,,,,,,,,,,,,,,,
,,,,,,,,,,,,,,,,,,2019-05-27_19h32.59.952,Probabilistic Learning,3.1.0,60,,,,,,0,1,0,3,1,1,2,hiragana2.xlsx,hiragana21.xlsx,hiragana22.xlsx,6,0,180,23,1,179,W,V,m,,,m,,,,,,,,,,,,,,,,,,,,,,,,,,,,,,,,
,,,,,,,,,,,,,,,,,,2019-05-27_19h32.59.952,Probabilistic Learning,3.1.0,60,,,,,,0,1,0,3,1,1,2,hiragana2.xlsx,hiragana21.xlsx,hiragana22.xlsx,6,0,180,14,1,179,b,o,m,,m,,,,,,,,,,,,,,,,,,,,,,,,,,,,,,,,,
,,,,,,,,,,,,,,,,,,2019-05-27_19h32.59.952,Probabilistic Learning,3.1.0,60,,,,,,0,1,0,3,1,1,2,hiragana2.xlsx,hiragana21.xlsx,hiragana22.xlsx,6,0,180,0,1,179,s,J,c,c,,,,,,,,,,,,,,,,,,,,,,,,,,,,,,,,,,
,,,,,,,,,,,,,,,,,,2019-05-27_19h32.59.952,Probabilistic Learning,3.1.0,60,,,,,,0,1,0,3,1,1,2,hiragana2.xlsx,hiragana21.xlsx,hiragana22.xlsx,6,0,180,19,1,179,o,b,m,,c,,,,,,,,,,,,,,,,,,,,,,,,,,,,,,,,,
,,,,,,,,,,,,,,,,,,2019-05-27_19h32.59.952,Probabilistic Learning,3.1.0,60,,,,,,0,1,0,3,1,1,2,hiragana2.xlsx,hiragana21.xlsx,hiragana22.xlsx,6,0,180,3,1,179,s,J,c,c,,,,,,,,,,,,,,,,,,,,,,,,,,,,,,,,,,
,,,,,,,,,,,,,,,,,,2019-05-27_19h32.59.952,Probabilistic Learning,3.1.0,60,,,,,,0,1,0,3,1,1,2,hiragana2.xlsx,hiragana21.xlsx,hiragana22.xlsx,6,0,180,10,1,179,o,b,c,,c,,,,,,,,,,,,,,,,,,,,,,,,,,,,,,,,,
,,,,,,,,,,,,,,,,,,2019-05-27_19h32.59.952,Probabilistic Learning,3.1.0,60,,,,,,0,1,0,3,1,1,2,hiragana2.xlsx,hiragana21.xlsx,hiragana22.xlsx,6,0,180,25,1,179,W,V,m,,,m,,,,,,,,,,,,,,,,,,,,,,,,,,,,,,,,
,,,,,,,,,,,,,,,,,,2019-05-27_19h32.59.952,Probabilistic Learning,3.1.0,60,,,,,,0,1,0,3,1,1,2,hiragana2.xlsx,hiragana21.xlsx,hiragana22.xlsx,6,0,180,26,1,179,V,W,m,,,c,,,,,,,,,,,,,,,,,,,,,,,,,,,,,,,,
,,,,,,,,,,,,,,,,,,2019-05-27_19h32.59.952,Probabilistic Learning,3.1.0,60,,,,,,0,1,0,3,1,1,2,hiragana2.xlsx,hiragana21.xlsx,hiragana22.xlsx,6,0,180,17,1,179,b,o,c,,m,,,,,,,,,,,,,,,,,,,,,,,,,,,,,,,,,
,,,,,,,,,,,,,,,,,,2019-05-27_19h32.59.952,Probabilistic Learning,3.1.0,60,,,,,,0,1,0,3,1,1,2,hiragana2.xlsx,hiragana21.xlsx,hiragana22.xlsx,6,0,180,22,1,179,V,W,c,,,c,,,,,,,,,,,,,,,,,,,,,,,,,,,,,,,,
,,,,,,,,,,,,,,,,,,2019-05-27_19h32.59.952,Probabilistic Learning,3.1.0,60,,,,,,0,1,0,3,1,1,2,hiragana2.xlsx,hiragana21.xlsx,hiragana22.xlsx,6,0,180,28,1,179,W,V,c,,,m,,,,,,,,,,,,,,,,,,,,,,,,,,,,,,,,
,,,,,,,,,,,,,,,,,,2019-05-27_19h32.59.952,Probabilistic Learning,3.1.0,60,,,,,,0,1,0,3,1,1,2,hiragana2.xlsx,hiragana21.xlsx,hiragana22.xlsx,6,0,180,20,1,179,V,W,c,,,c,,,,,,,,,,,,,,,,,,,,,,,,,,,,,,,,
,,,,,,,,,,,,,,,,,,2019-05-27_19h32.59.952,Probabilistic Learning,3.1.0,60,,,,,,0,1,0,3,1,1,2,hiragana2.xlsx,hiragana21.xlsx,hiragana22.xlsx,6,0,180,15,1,179,b,o,m,,m,,,,,,,,,,,,,,,,,,,,,,,,,,,,,,,,,
,,,,,,,,,,,,,,,,,,2019-05-27_19h32.59.952,Probabilistic Learning,3.1.0,60,,,,,,0,1,0,3,1,1,2,hiragana2.xlsx,hiragana21.xlsx,hiragana22.xlsx,6,0,180,24,1,179,W,V,m,,,m,,,,,,,,,,,,,,,,,,,,,,,,,,,,,,,,
,,,,,,,,,,,,,,,,,,2019-05-27_19h32.59.952,Probabilistic Learning,3.1.0,60,,,,,,0,1,0,3,1,1,2,hiragana2.xlsx,hiragana21.xlsx,hiragana22.xlsx,6,0,180,29,1,179,W,V,c,,,m,,,,,,,,,,,,,,,,,,,,,,,,,,,,,,,,
,,,,,,,,,,,,,,,,,,2019-05-27_19h32.59.952,Probabilistic Learning,3.1.0,60,,,,,,0,1,0,3,1,1,2,hiragana2.xlsx,hiragana21.xlsx,hiragana22.xlsx,6,0,180,5,1,179,J,s,m,m,,,,,,,,,,,,,,,,,,,,,,,,,,,,,,,,,,
,,,,,,,,,,,,,,,,,,2019-05-27_19h32.59.952,Probabilistic Learning,3.1.0,60,,,,,,0,1,0,3,1,1,2,hiragana2.xlsx,hiragana21.xlsx,hiragana22.xlsx,6,0,180,9,1,179,J,s,c,m,,,,,,,,,,,,,,,,,,,,,,,,,,,,,,,,,,
,,,,,,,,,,,,,,,,,,2019-05-27_19h32.59.952,Probabilistic Learning,3.1.0,60,,,,,,0,1,0,3,1,1,2,hiragana2.xlsx,hiragana21.xlsx,hiragana22.xlsx,6,0,180,7,1,179,J,s,m,m,,,,,,,,,,,,,,,,,,,,,,,,,,,,,,,,,,
,,,,,,,,,,,,,,,,,,2019-05-27_19h32.59.952,Probabilistic Learning,3.1.0,60,,,,,,0,1,0,3,1,1,2,hiragana2.xlsx,hiragana21.xlsx,hiragana22.xlsx,6,0,180,22,1,179,V,W,c,,,c,,,,,,,,,,,,,,,,,,,,,,,,,,,,,,,,
,,,,,,,,,,,,,,,,,,2019-05-27_19h32.59.952,Probabilistic Learning,3.1.0,60,,,,,,0,1,0,3,1,1,2,hiragana2.xlsx,hiragana21.xlsx,hiragana22.xlsx,6,0,180,25,1,179,W,V,m,,,m,,,,,,,,,,,,,,,,,,,,,,,,,,,,,,,,
,,,,,,,,,,,,,,,,,,2019-05-27_19h32.59.952,Probabilistic Learning,3.1.0,60,,,,,,0,1,0,3,1,1,2,hiragana2.xlsx,hiragana21.xlsx,hiragana22.xlsx,6,0,180,27,1,179,V,W,m,,,c,,,,,,,,,,,,,,,,,,,,,,,,,,,,,,,,
,,,,,,,,,,,,,,,,,,2019-05-27_19h32.59.952,Probabilistic Learning,3.1.0,60,,,,,,0,1,0,3,1,1,2,hiragana2.xlsx,hiragana21.xlsx,hiragana22.xlsx,6,0,180,11,1,179,o,b,c,,c,,,,,,,,,,,,,,,,,,,,,,,,,,,,,,,,,
,,,,,,,,,,,,,,,,,,2019-05-27_19h32.59.952,Probabilistic Learning,3.1.0,60,,,,,,0,1,0,3,1,1,2,hiragana2.xlsx,hiragana21.xlsx,hiragana22.xlsx,6,0,180,19,1,179,o,b,m,,c,,,,,,,,,,,,,,,,,,,,,,,,,,,,,,,,,
,,,,,,,,,,,,,,,,,,2019-05-27_19h32.59.952,Probabilistic Learning,3.1.0,60,,,,,,0,1,0,3,1,1,2,hiragana2.xlsx,hiragana21.xlsx,hiragana22.xlsx,6,0,180,16,1,179,b,o,m,,m,,,,,,,,,,,,,,,,,,,,,,,,,,,,,,,,,
,,,,,,,,,,,,,,,,,,2019-05-27_19h32.59.952,Probabilistic Learning,3.1.0,60,,,,,,0,1,0,3,1,1,2,hiragana2.xlsx,hiragana21.xlsx,hiragana22.xlsx,6,0,180,10,1,179,o,b,c,,c,,,,,,,,,,,,,,,,,,,,,,,,,,,,,,,,,
,,,,,,,,,,,,,,,,,,2019-05-27_19h32.59.952,Probabilistic Learning,3.1.0,60,,,,,,0,1,0,3,1,1,2,hiragana2.xlsx,hiragana21.xlsx,hiragana22.xlsx,6,0,180,8,1,179,s,J,m,c,,,,,,,,,,,,,,,,,,,,,,,,,,,,,,,,,,
,,,,,,,,,,,,,,,,,,2019-05-27_19h32.59.952,Probabilistic Learning,3.1.0,60,,,,,,0,1,0,3,1,1,2,hiragana2.xlsx,hiragana21.xlsx,hiragana22.xlsx,6,0,180,6,1,179,J,s,m,m,,,,,,,,,,,,,,,,,,,,,,,,,,,,,,,,,,
,,,,,,,,,,,,,,,,,,2019-05-27_19h32.59.952,Probabilistic Learning,3.1.0,60,,,,,,0,1,0,3,1,1,2,hiragana2.xlsx,hiragana21.xlsx,hiragana22.xlsx,6,0,180,0,1,179,s,J,c,c,,,,,,,,,,,,,,,,,,,,,,,,,,,,,,,,,,
,,,,,,,,,,,,,,,,,,2019-05-27_19h32.59.952,Probabilistic Learning,3.1.0,60,,,,,,0,1,0,3,1,1,2,hiragana2.xlsx,hiragana21.xlsx,hiragana22.xlsx,6,0,180,18,1,179,b,o,c,,m,,,,,,,,,,,,,,,,,,,,,,,,,,,,,,,,,
,,,,,,,,,,,,,,,,,,2019-05-27_19h32.59.952,Probabilistic Learning,3.1.0,60,,,,,,0,1,0,3,1,1,2,hiragana2.xlsx,hiragana21.xlsx,hiragana22.xlsx,6,0,180,20,1,179,V,W,c,,,c,,,,,,,,,,,,,,,,,,,,,,,,,,,,,,,,
,,,,,,,,,,,,,,,,,,2019-05-27_19h32.59.952,Probabilistic Learning,3.1.0,60,,,,,,0,1,0,3,1,1,2,hiragana2.xlsx,hiragana21.xlsx,hiragana22.xlsx,6,0,180,5,1,179,J,s,m,m,,,,,,,,,,,,,,,,,,,,,,,,,,,,,,,,,,
,,,,,,,,,,,,,,,,,,2019-05-27_19h32.59.952,Probabilistic Learning,3.1.0,60,,,,,,0,1,0,3,1,1,2,hiragana2.xlsx,hiragana21.xlsx,hiragana22.xlsx,6,0,180,1,1,179,s,J,c,c,,,,,,,,,,,,,,,,,,,,,,,,,,,,,,,,,,
,,,,,,,,,,,,,,,,,,2019-05-27_19h32.59.952,Probabilistic Learning,3.1.0,60,,,,,,0,1,0,3,1,1,2,hiragana2.xlsx,hiragana21.xlsx,hiragana22.xlsx,6,0,180,15,1,179,b,o,m,,m,,,,,,,,,,,,,,,,,,,,,,,,,,,,,,,,,
,,,,,,,,,,,,,,,,,,2019-05-27_19h32.59.952,Probabilistic Learning,3.1.0,60,,,,,,0,1,0,3,1,1,2,hiragana2.xlsx,hiragana21.xlsx,hiragana22.xlsx,6,0,180,13,1,179,o,b,c,,c,,,,,,,,,,,,,,,,,,,,,,,,,,,,,,,,,
,,,,,,,,,,,,,,,,,,2019-05-27_19h32.59.952,Probabilistic Learning,3.1.0,60,,,,,,0,1,0,3,1,1,2,hiragana2.xlsx,hiragana21.xlsx,hiragana22.xlsx,6,0,180,12,1,179,o,b,c,,c,,,,,,,,,,,,,,,,,,,,,,,,,,,,,,,,,
,,,,,,,,,,,,,,,,,,2019-05-27_19h32.59.952,Probabilistic Learning,3.1.0,60,,,,,,0,1,0,3,1,1,2,hiragana2.xlsx,hiragana21.xlsx,hiragana22.xlsx,6,0,180,28,1,179,W,V,c,,,m,,,,,,,,,,,,,,,,,,,,,,,,,,,,,,,,
,,,,,,,,,,,,,,,,,,2019-05-27_19h32.59.952,Probabilistic Learning,3.1.0,60,,,,,,0,1,0,3,1,1,2,hiragana2.xlsx,hiragana21.xlsx,hiragana22.xlsx,6,0,180,9,1,179,J,s,c,m,,,,,,,,,,,,,,,,,,,,,,,,,,,,,,,,,,
,,,,,,,,,,,,,,,,,,2019-05-27_19h32.59.952,Probabilistic Learning,3.1.0,60,,,,,,0,1,0,3,1,1,2,hiragana2.xlsx,hiragana21.xlsx,hiragana22.xlsx,6,0,180,2,1,179,s,J,c,c,,,,,,,,,,,,,,,,,,,,,,,,,,,,,,,,,,
,,,,,,,,,,,,,,,,,,2019-05-27_19h32.59.952,Probabilistic Learning,3.1.0,60,,,,,,0,1,0,3,1,1,2,hiragana2.xlsx,hiragana21.xlsx,hiragana22.xlsx,6,0,180,26,1,179,V,W,m,,,c,,,,,,,,,,,,,,,,,,,,,,,,,,,,,,,,
,,,,,,,,,,,,,,,,,,2019-05-27_19h32.59.952,Probabilistic Learning,3.1.0,60,,,,,,0,1,0,3,1,1,2,hiragana2.xlsx,hiragana21.xlsx,hiragana22.xlsx,6,0,180,29,1,179,W,V,c,,,m,,,,,,,,,,,,,,,,,,,,,,,,,,,,,,,,
,,,,,,,,,,,,,,,,,,2019-05-27_19h32.59.952,Probabilistic Learning,3.1.0,60,,,,,,0,1,0,3,1,1,2,hiragana2.xlsx,hiragana21.xlsx,hiragana22.xlsx,6,0,180,17,1,179,b,o,c,,m,,,,,,,,,,,,,,,,,,,,,,,,,,,,,,,,,
,,,,,,,,,,,,,,,,,,2019-05-27_19h32.59.952,Probabilistic Learning,3.1.0,60,,,,,,0,1,0,3,1,1,2,hiragana2.xlsx,hiragana21.xlsx,hiragana22.xlsx,6,0,180,24,1,179,W,V,m,,,m,,,,,,,,,,,,,,,,,,,,,,,,,,,,,,,,
,,,,,,,,,,,,,,,,,,2019-05-27_19h32.59.952,Probabilistic Learning,3.1.0,60,,,,,,0,1,0,3,1,1,2,hiragana2.xlsx,hiragana21.xlsx,hiragana22.xlsx,6,0,180,3,1,179,s,J,c,c,,,,,,,,,,,,,,,,,,,,,,,,,,,,,,,,,,
,,,,,,,,,,,,,,,,,,2019-05-27_19h32.59.952,Probabilistic Learning,3.1.0,60,,,,,,0,1,0,3,1,1,2,hiragana2.xlsx,hiragana21.xlsx,hiragana22.xlsx,6,0,180,4,1,179,J,s,m,m,,,,,,,,,,,,,,,,,,,,,,,,,,,,,,,,,,
,,,,,,,,,,,,,,,,,,2019-05-27_19h32.59.952,Probabilistic Learning,3.1.0,60,,,,,,0,1,0,3,1,1,2,hiragana2.xlsx,hiragana21.xlsx,hiragana22.xlsx,6,0,180,14,1,179,b,o,m,,m,,,,,,,,,,,,,,,,,,,,,,,,,,,,,,,,,
,,,,,,,,,,,,,,,,,,2019-05-27_19h32.59.952,Probabilistic Learning,3.1.0,60,,,,,,0,1,0,3,1,1,2,hiragana2.xlsx,hiragana21.xlsx,hiragana22.xlsx,6,0,180,21,1,179,V,W,c,,,c,,,,,,,,,,,,,,,,,,,,,,,,,,,,,,,,
,,,,,,,,,,,,,,,,,,2019-05-27_19h32.59.952,Probabilistic Learning,3.1.0,60,,,,,,0,1,0,3,1,1,2,hiragana2.xlsx,hiragana21.xlsx,hiragana22.xlsx,6,0,180,23,1,179,W,V,m,,,m,,,,,,,,,,,,,,,,,,,,,,,,,,,,,,,,
,,,,,,,,,,,,,,,,,,2019-05-27_19h32.59.952,Probabilistic Learning,3.1.0,60,,,,,,0,1,0,3,1,1,2,hiragana2.xlsx,hiragana21.xlsx,hiragana22.xlsx,6,0,180,1,1,179,s,J,c,c,,,,,,,,,,,,,,,,,,,,,,,,,,,,,,,,,,
,,,,,,,,,,,,,,,,,,2019-05-27_19h32.59.952,Probabilistic Learning,3.1.0,60,,,,,,0,1,0,3,1,1,2,hiragana2.xlsx,hiragana21.xlsx,hiragana22.xlsx,6,0,180,24,1,179,W,V,m,,,m,,,,,,,,,,,,,,,,,,,,,,,,,,,,,,,,
,,,,,,,,,,,,,,,,,,2019-05-27_19h32.59.952,Probabilistic Learning,3.1.0,60,,,,,,0,1,0,3,1,1,2,hiragana2.xlsx,hiragana21.xlsx,hiragana22.xlsx,6,0,180,19,1,179,o,b,m,,c,,,,,,,,,,,,,,,,,,,,,,,,,,,,,,,,,
,,,,,,,,,,,,,,,,,,2019-05-27_19h32.59.952,Probabilistic Learning,3.1.0,60,,,,,,0,1,0,3,1,1,2,hiragana2.xlsx,hiragana21.xlsx,hiragana22.xlsx,6,0,180,25,1,179,W,V,m,,,m,,,,,,,,,,,,,,,,,,,,,,,,,,,,,,,,
,,,,,,,,,,,,,,,,,,2019-05-27_19h32.59.952,Probabilistic Learning,3.1.0,60,,,,,,0,1,0,3,1,1,2,hiragana2.xlsx,hiragana21.xlsx,hiragana22.xlsx,6,0,180,29,1,179,W,V,c,,,m,,,,,,,,,,,,,,,,,,,,,,,,,,,,,,,,
,,,,,,,,,,,,,,,,,,2019-05-27_19h32.59.952,Probabilistic Learning,3.1.0,60,,,,,,0,1,0,3,1,1,2,hiragana2.xlsx,hiragana21.xlsx,hiragana22.xlsx,6,0,180,13,1,179,o,b,c,,c,,,,,,,,,,,,,,,,,,,,,,,,,,,,,,,,,
,,,,,,,,,,,,,,,,,,2019-05-27_19h32.59.952,Probabilistic Learning,3.1.0,60,,,,,,0,1,0,3,1,1,2,hiragana2.xlsx,hiragana21.xlsx,hiragana22.xlsx,6,0,180,14,1,179,b,o,m,,m,,,,,,,,,,,,,,,,,,,,,,,,,,,,,,,,,
,,,,,,,,,,,,,,,,,,2019-05-27_19h32.59.952,Probabilistic Learning,3.1.0,60,,,,,,0,1,0,3,1,1,2,hiragana2.xlsx,hiragana21.xlsx,hiragana22.xlsx,6,0,180,11,1,179,o,b,c,,c,,,,,,,,,,,,,,,,,,,,,,,,,,,,,,,,,
,,,,,,,,,,,,,,,,,,2019-05-27_19h32.59.952,Probabilistic Learning,3.1.0,60,,,,,,0,1,0,3,1,1,2,hiragana2.xlsx,hiragana21.xlsx,hiragana22.xlsx,6,0,180,16,1,179,b,o,m,,m,,,,,,,,,,,,,,,,,,,,,,,,,,,,,,,,,
,,,,,,,,,,,,,,,,,,2019-05-27_19h32.59.952,Probabilistic Learning,3.1.0,60,,,,,,0,1,0,3,1,1,2,hiragana2.xlsx,hiragana21.xlsx,hiragana22.xlsx,6,0,180,27,1,179,V,W,m,,,c,,,,,,,,,,,,,,,,,,,,,,,,,,,,,,,,
,,,,,,,,,,,,,,,,,,2019-05-27_19h32.59.952,Probabilistic Learning,3.1.0,60,,,,,,0,1,0,3,1,1,2,hiragana2.xlsx,hiragana21.xlsx,hiragana22.xlsx,6,0,180,18,1,179,b,o,c,,m,,,,,,,,,,,,,,,,,,,,,,,,,,,,,,,,,
,,,,,,,,,,,,,,,,,,2019-05-27_19h32.59.952,Probabilistic Learning,3.1.0,60,,,,,,0,1,0,3,1,1,2,hiragana2.xlsx,hiragana21.xlsx,hiragana22.xlsx,6,0,180,10,1,179,o,b,c,,c,,,,,,,,,,,,,,,,,,,,,,,,,,,,,,,,,
,,,,,,,,,,,,,,,,,,2019-05-27_19h32.59.952,Probabilistic Learning,3.1.0,60,,,,,,0,1,0,3,1,1,2,hiragana2.xlsx,hiragana21.xlsx,hiragana22.xlsx,6,0,180,9,1,179,J,s,c,m,,,,,,,,,,,,,,,,,,,,,,,,,,,,,,,,,,
,,,,,,,,,,,,,,,,,,2019-05-27_19h32.59.952,Probabilistic Learning,3.1.0,60,,,,,,0,1,0,3,1,1,2,hiragana2.xlsx,hiragana21.xlsx,hiragana22.xlsx,6,0,180,17,1,179,b,o,c,,m,,,,,,,,,,,,,,,,,,,,,,,,,,,,,,,,,
,,,,,,,,,,,,,,,,,,2019-05-27_19h32.59.952,Probabilistic Learning,3.1.0,60,,,,,,0,1,0,3,1,1,2,hiragana2.xlsx,hiragana21.xlsx,hiragana22.xlsx,6,0,180,20,1,179,V,W,c,,,c,,,,,,,,,,,,,,,,,,,,,,,,,,,,,,,,
,,,,,,,,,,,,,,,,,,2019-05-27_19h32.59.952,Probabilistic Learning,3.1.0,60,,,,,,0,1,0,3,1,1,2,hiragana2.xlsx,hiragana21.xlsx,hiragana22.xlsx,6,0,180,6,1,179,J,s,m,m,,,,,,,,,,,,,,,,,,,,,,,,,,,,,,,,,,
,,,,,,,,,,,,,,,,,,2019-05-27_19h32.59.952,Probabilistic Learning,3.1.0,60,,,,,,0,1,0,3,1,1,2,hiragana2.xlsx,hiragana21.xlsx,hiragana22.xlsx,6,0,180,4,1,179,J,s,m,m,,,,,,,,,,,,,,,,,,,,,,,,,,,,,,,,,,
,,,,,,,,,,,,,,,,,,2019-05-27_19h32.59.952,Probabilistic Learning,3.1.0,60,,,,,,0,1,0,3,1,1,2,hiragana2.xlsx,hiragana21.xlsx,hiragana22.xlsx,6,0,180,3,1,179,s,J,c,c,,,,,,,,,,,,,,,,,,,,,,,,,,,,,,,,,,
,,,,,,,,,,,,,,,,,,2019-05-27_19h32.59.952,Probabilistic Learning,3.1.0,60,,,,,,0,1,0,3,1,1,2,hiragana2.xlsx,hiragana21.xlsx,hiragana22.xlsx,6,0,180,23,1,179,W,V,m,,,m,,,,,,,,,,,,,,,,,,,,,,,,,,,,,,,,
,,,,,,,,,,,,,,,,,,2019-05-27_19h32.59.952,Probabilistic Learning,3.1.0,60,,,,,,0,1,0,3,1,1,2,hiragana2.xlsx,hiragana21.xlsx,hiragana22.xlsx,6,0,180,26,1,179,V,W,m,,,c,,,,,,,,,,,,,,,,,,,,,,,,,,,,,,,,
,,,,,,,,,,,,,,,,,,2019-05-27_19h32.59.952,Probabilistic Learning,3.1.0,60,,,,,,0,1,0,3,1,1,2,hiragana2.xlsx,hiragana21.xlsx,hiragana22.xlsx,6,0,180,12,1,179,o,b,c,,c,,,,,,,,,,,,,,,,,,,,,,,,,,,,,,,,,
,,,,,,,,,,,,,,,,,,2019-05-27_19h32.59.952,Probabilistic Learning,3.1.0,60,,,,,,0,1,0,3,1,1,2,hiragana2.xlsx,hiragana21.xlsx,hiragana22.xlsx,6,0,180,28,1,179,W,V,c,,,m,,,,,,,,,,,,,,,,,,,,,,,,,,,,,,,,
,,,,,,,,,,,,,,,,,,2019-05-27_19h32.59.952,Probabilistic Learning,3.1.0,60,,,,,,0,1,0,3,1,1,2,hiragana2.xlsx,hiragana21.xlsx,hiragana22.xlsx,6,0,180,22,1,179,V,W,c,,,c,,,,,,,,,,,,,,,,,,,,,,,,,,,,,,,,
,,,,,,,,,,,,,,,,,,2019-05-27_19h32.59.952,Probabilistic Learning,3.1.0,60,,,,,,0,1,0,3,1,1,2,hiragana2.xlsx,hiragana21.xlsx,hiragana22.xlsx,6,0,180,0,1,179,s,J,c,c,,,,,,,,,,,,,,,,,,,,,,,,,,,,,,,,,,
,,,,,,,,,,,,,,,,,,2019-05-27_19h32.59.952,Probabilistic Learning,3.1.0,60,,,,,,0,1,0,3,1,1,2,hiragana2.xlsx,hiragana21.xlsx,hiragana22.xlsx,6,0,180,15,1,179,b,o,m,,m,,,,,,,,,,,,,,,,,,,,,,,,,,,,,,,,,
,,,,,,,,,,,,,,,,,,2019-05-27_19h32.59.952,Probabilistic Learning,3.1.0,60,,,,,,0,1,0,3,1,1,2,hiragana2.xlsx,hiragana21.xlsx,hiragana22.xlsx,6,0,180,21,1,179,V,W,c,,,c,,,,,,,,,,,,,,,,,,,,,,,,,,,,,,,,
,,,,,,,,,,,,,,,,,,2019-05-27_19h32.59.952,Probabilistic Learning,3.1.0,60,,,,,,0,1,0,3,1,1,2,hiragana2.xlsx,hiragana21.xlsx,hiragana22.xlsx,6,0,180,2,1,179,s,J,c,c,,,,,,,,,,,,,,,,,,,,,,,,,,,,,,,,,,
,,,,,,,,,,,,,,,,,,2019-05-27_19h32.59.952,Probabilistic Learning,3.1.0,60,,,,,,0,1,0,3,1,1,2,hiragana2.xlsx,hiragana21.xlsx,hiragana22.xlsx,6,0,180,8,1,179,s,J,m,c,,,,,,,,,,,,,,,,,,,,,,,,,,,,,,,,,,
,,,,,,,,,,,,,,,,,,2019-05-27_19h32.59.952,Probabilistic Learning,3.1.0,60,,,,,,0,1,0,3,1,1,2,hiragana2.xlsx,hiragana21.xlsx,hiragana22.xlsx,6,0,180,5,1,179,J,s,m,m,,,,,,,,,,,,,,,,,,,,,,,,,,,,,,,,,,
,,,,,,,,,,,,,,,,,,2019-05-27_19h32.59.952,Probabilistic Learning,3.1.0,60,,,,,,0,1,0,3,1,1,2,hiragana2.xlsx,hiragana21.xlsx,hiragana22.xlsx,6,0,180,7,1,179,J,s,m,m,,,,,,,,,,,,,,,,,,,,,,,,,,,,,,,,,,
,,,,,,,,,,,,,,,,,,2019-05-27_19h32.59.952,Probabilistic Learning,3.1.0,60,,,,,,,1,0,3,1,1,2,hiragana2.xlsx,hiragana21.xlsx,hiragana22.xlsx,,,,,,,,,,,,,space,84.614,space,0.609,,2,0,92,13,1,91,b,s,D,A,m,,,,,,,,,,,,,,,,
,,,,,,,,,,,,,,,,,,2019-05-27_19h32.59.952,Probabilistic Learning,3.1.0,60,,,,,,,1,0,3,1,1,2,hiragana2.xlsx,hiragana21.xlsx,hiragana22.xlsx,,,,,,,,,,,,,,,,,,2,0,92,6,1,91,s,o,A,C,c,,,,,,,,,,,,,,,,
,,,,,,,,,,,,,,,,,,2019-05-27_19h32.59.952,Probabilistic Learning,3.1.0,60,,,,,,,1,0,3,1,1,2,hiragana2.xlsx,hiragana21.xlsx,hiragana22.xlsx,,,,,,,,,,,,,,,,,,2,0,92,28,1,91,b,J,D,B,,c,,,,,,,,,,,,,,,
,,,,,,,,,,,,,,,,,,2019-05-27_19h32.59.952,Probabilistic Learning,3.1.0,60,,,,,,,1,0,3,1,1,2,hiragana2.xlsx,hiragana21.xlsx,hiragana22.xlsx,,,,,,,,,,,,,,,,,,2,0,92,17,1,91,V,s,E,A,m,,,,,,,,,,,,,,,,
,,,,,,,,,,,,,,,,,,2019-05-27_19h32.59.952,Probabilistic Learning,3.1.0,60,,,,,,,1,0,3,1,1,2,hiragana2.xlsx,hiragana21.xlsx,hiragana22.xlsx,,,,,,,,,,,,,,,,,,2,0,92,8,1,91,o,s,C,A,m,,,,,,,,,,,,,,,,
,,,,,,,,,,,,,,,,,,2019-05-27_19h32.59.952,Probabilistic Learning,3.1.0,60,,,,,,,1,0,3,1,1,2,hiragana2.xlsx,hiragana21.xlsx,hiragana22.xlsx,,,,,,,,,,,,,,,,,,2,0,92,44,1,91,b,W,d,f,,,,,,,,,,,,,,,,,
,,,,,,,,,,,,,,,,,,2019-05-27_19h32.59.952,Probabilistic Learning,3.1.0,60,,,,,,,1,0,3,1,1,2,hiragana2.xlsx,hiragana21.xlsx,hiragana22.xlsx,,,,,,,,,,,,,,,,,,2,0,92,18,1,91,s,W,A,F,c,,,,,,,,,,,,,,,,
,,,,,,,,,,,,,,,,,,2019-05-27_19h32.59.952,Probabilistic Learning,3.1.0,60,,,,,,,1,0,3,1,1,2,hiragana2.xlsx,hiragana21.xlsx,hiragana22.xlsx,,,,,,,,,,,,,,,,,,2,0,92,1,1,91,J,s,B,A,,,,,,,,,,,,,,,,,
,,,,,,,,,,,,,,,,,,2019-05-27_19h32.59.952,Probabilistic Learning,3.1.0,60,,,,,,,1,0,3,1,1,2,hiragana2.xlsx,hiragana21.xlsx,hiragana22.xlsx,,,,,,,,,,,,,,,,,,2,0,92,12,1,91,b,s,D,A,m,,,,,,,,,,,,,,,,
,,,,,,,,,,,,,,,,,,2019-05-27_19h32.59.952,Probabilistic Learning,3.1.0,60,,,,,,,1,0,3,1,1,2,hiragana2.xlsx,hiragana21.xlsx,hiragana22.xlsx,,,,,,,,,,,,,,,,,,2,0,92,2,1,91,o,b,C,D,,,,,,,,,,,,,,,,,
,,,,,,,,,,,,,,,,,,2019-05-27_19h32.59.952,Probabilistic Learning,3.1.0,60,,,,,,,1,0,3,1,1,2,hiragana2.xlsx,hiragana21.xlsx,hiragana22.xlsx,,,,,,,,,,,,,,,,,,2,0,92,19,1,91,s,W,A,F,c,,,,,,,,,,,,,,,,
,,,,,,,,,,,,,,,,,,2019-05-27_19h32.59.952,Probabilistic Learning,3.1.0,60,,,,,,,1,0,3,1,1,2,hiragana2.xlsx,hiragana21.xlsx,hiragana22.xlsx,,,,,,,,,,,,,,,,,,2,0,92,36,1,91,W,J,F,B,,c,,,,,,,,,,,,,,,
,,,,,,,,,,,,,,,,,,2019-05-27_19h32.59.952,Probabilistic Learning,3.1.0,60,,,,,,,1,0,3,1,1,2,hiragana2.xlsx,hiragana21.xlsx,hiragana22.xlsx,,,,,,,,,,,,,,,,,,2,0,92,32,1,91,V,J,E,B,,c,,,,,,,,,,,,,,,
,,,,,,,,,,,,,,,,,,2019-05-27_19h32.59.952,Probabilistic Learning,3.1.0,60,,,,,,,1,0,3,1,1,2,hiragana2.xlsx,hiragana21.xlsx,hiragana22.xlsx,,,,,,,,,,,,,,,,,,2,0,92,3,1,91,b,o,D,C,,,,,,,,,,,,,,,,,
,,,,,,,,,,,,,,,,,,2019-05-27_19h32.59.952,Probabilistic Learning,3.1.0,60,,,,,,,1,0,3,1,1,2,hiragana2.xlsx,hiragana21.xlsx,hiragana22.xlsx,,,,,,,,,,,,,,,,,,2,0,92,25,1,91,o,J,C,B,,c,,,,,,,,,,,,,,,
,,,,,,,,,,,,,,,,,,2019-05-27_19h32.59.952,Probabilistic Learning,3.1.0,60,,,,,,,1,0,3,1,1,2,hiragana2.xlsx,hiragana21.xlsx,hiragana22.xlsx,,,,,,,,,,,,,,,,,,2,0,92,11,1,91,s,b,A,D,c,,,,,,,,,,,,,,,,
,,,,,,,,,,,,,,,,,,2019-05-27_19h32.59.952,Probabilistic Learning,3.1.0,60,,,,,,,1,0,3,1,1,2,hiragana2.xlsx,hiragana21.xlsx,hiragana22.xlsx,,,,,,,,,,,,,,,,,,2,0,92,5,1,91,W,V,F,E,,,,,,,,,,,,,,,,,
,,,,,,,,,,,,,,,,,,2019-05-27_19h32.59.952,Probabilistic Learning,3.1.0,60,,,,,,,1,0,3,1,1,2,hiragana2.xlsx,hiragana21.xlsx,hiragana22.xlsx,,,,,,,,,,,,,,,,,,2,0,92,45,1,91,W,b,f,d,,,,,,,,,,,,,,,,,
,,,,,,,,,,,,,,,,,,2019-05-27_19h32.59.952,Probabilistic Learning,3.1.0,60,,,,,,,1,0,3,1,1,2,hiragana2.xlsx,hiragana21.xlsx,hiragana22.xlsx,,,,,,,,,,,,,,,,,,2,0,92,27,1,91,J,b,B,D,,m,,,,,,,,,,,,,,,
,,,,,,,,,,,,,,,,,,2019-05-27_19h32.59.952,Probabilistic Learning,3.1.0,60,,,,,,,1,0,3,1,1,2,hiragana2.xlsx,hiragana21.xlsx,hiragana22.xlsx,,,,,,,,,,,,,,,,,,2,0,92,22,1,91,J,o,B,C,,m,,,,,,,,,,,,,,,
,,,,,,,,,,,,,,,,,,2019-05-27_19h32.59.952,Probabilistic Learning,3.1.0,60,,,,,,,1,0,3,1,1,2,hiragana2.xlsx,hiragana21.xlsx,hiragana22.xlsx,,,,,,,,,,,,,,,,,,2,0,92,38,1,91,o,V,C,E,,,,,,,,,,,,,,,,,
,,,,,,,,,,,,,,,,,,2019-05-27_19h32.59.952,Probabilistic Learning,3.1.0,60,,,,,,,1,0,3,1,1,2,hiragana2.xlsx,hiragana21.xlsx,hiragana22.xlsx,,,,,,,,,,,,,,,,,,2,0,92,10,1,91,s,b,A,D,c,,,,,,,,,,,,,,,,
,,,,,,,,,,,,,,,,,,2019-05-27_19h32.59.952,Probabilistic Learning,3.1.0,60,,,,,,,1,0,3,1,1,2,hiragana2.xlsx,hiragana21.xlsx,hiragana22.xlsx,,,,,,,,,,,,,,,,,,2,0,92,14,1,91,s,V,A,E,c,,,,,,,,,,,,,,,,
,,,,,,,,,,,,,,,,,,2019-05-27_19h32.59.952,Probabilistic Learning,3.1.0,60,,,,,,,1,0,3,1,1,2,hiragana2.xlsx,hiragana21.xlsx,hiragana22.xlsx,,,,,,,,,,,,,,,,,,2,0,92,4,1,91,V,W,E,F,,,,,,,,,,,,,,,,,
,,,,,,,,,,,,,,,,,,2019-05-27_19h32.59.952,Probabilistic Learning,3.1.0,60,,,,,,,1,0,3,1,1,2,hiragana2.xlsx,hiragana21.xlsx,hiragana22.xlsx,,,,,,,,,,,,,,,,,,2,0,92,31,1,91,J,V,B,E,,m,,,,,,,,,,,,,,,
,,,,,,,,,,,,,,,,,,2019-05-27_19h32.59.952,Probabilistic Learning,3.1.0,60,,,,,,,1,0,3,1,1,2,hiragana2.xlsx,hiragana21.xlsx,hiragana22.xlsx,,,,,,,,,,,,,,,,,,2,0,92,15,1,91,s,V,A,E,c,,,,,,,,,,,,,,,,
,,,,,,,,,,,,,,,,,,2019-05-27_19h32.59.952,Probabilistic Learning,3.1.0,60,,,,,,,1,0,3,1,1,2,hiragana2.xlsx,hiragana21.xlsx,hiragana22.xlsx,,,,,,,,,,,,,,,,,,2,0,92,41,1,91,W,o,f,c,,,,,,,,,,,,,,,,,
,,,,,,,,,,,,,,,,,,2019-05-27_19h32.59.952,Probabilistic Learning,3.1.0,60,,,,,,,1,0,3,1,1,2,hiragana2.xlsx,hiragana21.xlsx,hiragana22.xlsx,,,,,,,,,,,,,,,,,,2,0,92,26,1,91,J,b,B,D,,m,,,,,,,,,,,,,,,
,,,,,,,,,,,,,,,,,,2019-05-27_19h32.59.952,Probabilistic Learning,3.1.0,60,,,,,,,1,0,3,1,1,2,hiragana2.xlsx,hiragana21.xlsx,hiragana22.xlsx,,,,,,,,,,,,,,,,,,2,0,92,37,1,91,W,J,F,B,,c,,,,,,,,,,,,,,,
,,,,,,,,,,,,,,,,,,2019-05-27_19h32.59.952,Probabilistic Learning,3.1.0,60,,,,,,,1,0,3,1,1,2,hiragana2.xlsx,hiragana21.xlsx,hiragana22.xlsx,,,,,,,,,,,,,,,,,,2,0,92,9,1,91,o,s,C,A,m,,,,,,,,,,,,,,,,
,,,,,,,,,,,,,,,,,,2019-05-27_19h32.59.952,Probabilistic Learning,3.1.0,60,,,,,,,1,0,3,1,1,2,hiragana2.xlsx,hiragana21.xlsx,hiragana22.xlsx,,,,,,,,,,,,,,,,,,2,0,92,43,1,91,V,b,e,d,,,,,,,,,,,,,,,,,
,,,,,,,,,,,,,,,,,,2019-05-27_19h32.59.952,Probabilistic Learning,3.1.0,60,,,,,,,1,0,3,1,1,2,hiragana2.xlsx,hiragana21.xlsx,hiragana22.xlsx,,,,,,,,,,,,,,,,,,2,0,92,35,1,91,J,W,B,F,,m,,,,,,,,,,,,,,,
,,,,,,,,,,,,,,,,,,2019-05-27_19h32.59.952,Probabilistic Learning,3.1.0,60,,,,,,,1,0,3,1,1,2,hiragana2.xlsx,hiragana21.xlsx,hiragana22.xlsx,,,,,,,,,,,,,,,,,,2,0,92,40,1,91,o,W,c,f,,,,,,,,,,,,,,,,,
,,,,,,,,,,,,,,,,,,2019-05-27_19h32.59.952,Probabilistic Learning,3.1.0,60,,,,,,,1,0,3,1,1,2,hiragana2.xlsx,hiragana21.xlsx,hiragana22.xlsx,,,,,,,,,,,,,,,,,,2,0,92,0,1,91,s,J,A,B,,,,,,,,,,,,,,,,,
,,,,,,,,,,,,,,,,,,2019-05-27_19h32.59.952,Probabilistic Learning,3.1.0,60,,,,,,,1,0,3,1,1,2,hiragana2.xlsx,hiragana21.xlsx,hiragana22.xlsx,,,,,,,,,,,,,,,,,,2,0,92,16,1,91,V,s,E,A,m,,,,,,,,,,,,,,,,
,,,,,,,,,,,,,,,,,,2019-05-27_19h32.59.952,Probabilistic Learning,3.1.0,60,,,,,,,1,0,3,1,1,2,hiragana2.xlsx,hiragana21.xlsx,hiragana22.xlsx,,,,,,,,,,,,,,,,,,2,0,92,30,1,91,J,V,B,E,,m,,,,,,,,,,,,,,,
