welc_resp.keys,welc_resp.rt,instr0_resp.keys,instr0_resp.rt,prep_resp.keys,prep_resp.corr,prep_resp.rt,preparation.thisRepN,preparation.thisTrialN,preparation.thisN,preparation.thisIndex,preparation.ran,preparation.order,letter10,letter20,corrAns0,participant,,date,expName,psychopyVersion,frameRate,outro_resp.keys,outro_resp.rt,instr1_resp.keys,instr1_resp.rt,resp.keys,resp.corr,resp.rt,letterMaster.thisRepN,letterMaster.thisTrialN,letterMaster.thisN,letterMaster.thisIndex,letterMaster.ran,letterMaster.order,letterset,letterset2,practice.thisRepN,practice.thisTrialN,practice.thisN,practice.thisIndex,practice.ran,practice.order,letter1,letter2,corrAns,letterA,letterC,letterE,instr2_resp.keys,instr2_resp.rt,instr3_resp.keys,instr3_resp.rt,test_resp.keys,test_resp.rt,test.thisRepN,test.thisTrialN,test.thisN,test.thisIndex,test.ran,test.order,letter3,letter4,letterA2,letterB2,pickA,avoidB,outro_resp2.keys,outro_resp2.rt
space,1.114,space,0.371,m,0,0.281,1,0,10,8,1,9,L,U,c,,,2019-05-23_20h20.01.183,Probabilistic Learning,3.1.0,60,,,,,,,,,,,,,,,,,,,,,,,,,,,,,,,,,,,,,,,,,,,,,,,
,,,,c,1,0.295,1,0,10,1,1,9,U,L,c,,,2019-05-23_20h20.01.183,Probabilistic Learning,3.1.0,60,,,,,,,,,,,,,,,,,,,,,,,,,,,,,,,,,,,,,,,,,,,,,,,
,,,,m,1,0.314,1,0,10,7,1,9,L,U,m,,,2019-05-23_20h20.01.183,Probabilistic Learning,3.1.0,60,,,,,,,,,,,,,,,,,,,,,,,,,,,,,,,,,,,,,,,,,,,,,,,
,,,,c,1,0.329,1,0,10,6,1,9,U,L,c,,,2019-05-23_20h20.01.183,Probabilistic Learning,3.1.0,60,,,,,,,,,,,,,,,,,,,,,,,,,,,,,,,,,,,,,,,,,,,,,,,
,,,,c,0,0.33,1,0,10,9,1,9,U,L,m,,,2019-05-23_20h20.01.183,Probabilistic Learning,3.1.0,60,,,,,,,,,,,,,,,,,,,,,,,,,,,,,,,,,,,,,,,,,,,,,,,
,,,,m,1,0.33,1,0,10,2,1,9,L,U,m,,,2019-05-23_20h20.01.183,Probabilistic Learning,3.1.0,60,,,,,,,,,,,,,,,,,,,,,,,,,,,,,,,,,,,,,,,,,,,,,,,
,,,,c,1,0.264,1,0,10,0,1,9,U,L,c,,,2019-05-23_20h20.01.183,Probabilistic Learning,3.1.0,60,,,,,,,,,,,,,,,,,,,,,,,,,,,,,,,,,,,,,,,,,,,,,,,
,,,,c,1,0.313,1,0,10,4,1,9,U,L,c,,,2019-05-23_20h20.01.183,Probabilistic Learning,3.1.0,60,,,,,,,,,,,,,,,,,,,,,,,,,,,,,,,,,,,,,,,,,,,,,,,
,,,,c,1,0.297,1,0,10,5,1,9,U,L,c,,,2019-05-23_20h20.01.183,Probabilistic Learning,3.1.0,60,,,,,,,,,,,,,,,,,,,,,,,,,,,,,,,,,,,,,,,,,,,,,,,
,,,,m,1,0.345,1,0,10,3,1,9,L,U,m,,,2019-05-23_20h20.01.183,Probabilistic Learning,3.1.0,60,,,,,,,,,,,,,,,,,,,,,,,,,,,,,,,,,,,,,,,,,,,,,,,
,,,,,,,,,,,,,,,,,,2019-05-23_20h20.01.183,Probabilistic Learning,3.1.0,60,space,0.895,space,0.415,m,1,0.524,1,0,6,0,1,5,hiragana1.xlsx,hiragana11.xlsx,6,0,180,5,1,179,a,A,m,m,,,,,,,,,,,,,,,,,,,,,,
,,,,,,,,,,,,,,,,,,2019-05-23_20h20.01.183,Probabilistic Learning,3.1.0,60,,,,,c,0,0.293,1,0,6,0,1,5,hiragana1.xlsx,hiragana11.xlsx,6,0,180,27,1,179,I,L,m,,,c,,,,,,,,,,,,,,,,,,,,
,,,,,,,,,,,,,,,,,,2019-05-23_20h20.01.183,Probabilistic Learning,3.1.0,60,,,,,m,1,0.26,1,0,6,0,1,5,hiragana1.xlsx,hiragana11.xlsx,6,0,180,19,1,179,O,d,m,,c,,,,,,,,,,,,,,,,,,,,,
,,,,,,,,,,,,,,,,,,2019-05-23_20h20.01.183,Probabilistic Learning,3.1.0,60,,,,,c,1,0.395,1,0,6,0,1,5,hiragana1.xlsx,hiragana11.xlsx,6,0,180,20,1,179,I,L,c,,,c,,,,,,,,,,,,,,,,,,,,
,,,,,,,,,,,,,,,,,,2019-05-23_20h20.01.183,Probabilistic Learning,3.1.0,60,,,,,m,1,0.497,1,0,6,0,1,5,hiragana1.xlsx,hiragana11.xlsx,6,0,180,7,1,179,a,A,m,m,,,,,,,,,,,,,,,,,,,,,,
,,,,,,,,,,,,,,,,,,2019-05-23_20h20.01.183,Probabilistic Learning,3.1.0,60,,,,,m,1,0.38,1,0,6,0,1,5,hiragana1.xlsx,hiragana11.xlsx,6,0,180,4,1,179,a,A,m,m,,,,,,,,,,,,,,,,,,,,,,
,,,,,,,,,,,,,,,,,,2019-05-23_20h20.01.183,Probabilistic Learning,3.1.0,60,,,,,m,0,0.413,1,0,6,0,1,5,hiragana1.xlsx,hiragana11.xlsx,6,0,180,29,1,179,L,I,c,,,m,,,,,,,,,,,,,,,,,,,,
,,,,,,,,,,,,,,,,,,2019-05-23_20h20.01.183,Probabilistic Learning,3.1.0,60,,,,,m,1,0.347,1,0,6,0,1,5,hiragana1.xlsx,hiragana11.xlsx,6,0,180,25,1,179,L,I,m,,,m,,,,,,,,,,,,,,,,,,,,
,,,,,,,,,,,,,,,,,,2019-05-23_20h20.01.183,Probabilistic Learning,3.1.0,60,,,,,m,0,0.545,1,0,6,0,1,5,hiragana1.xlsx,hiragana11.xlsx,6,0,180,17,1,179,d,O,c,,m,,,,,,,,,,,,,,,,,,,,,
,,,,,,,,,,,,,,,,,,2019-05-23_20h20.01.183,Probabilistic Learning,3.1.0,60,,,,,m,0,0.329,1,0,6,0,1,5,hiragana1.xlsx,hiragana11.xlsx,6,0,180,18,1,179,d,O,c,,m,,,,,,,,,,,,,,,,,,,,,
,,,,,,,,,,,,,,,,,,2019-05-23_20h20.01.183,Probabilistic Learning,3.1.0,60,,,,,c,1,0.346,1,0,6,0,1,5,hiragana1.xlsx,hiragana11.xlsx,6,0,180,21,1,179,I,L,c,,,c,,,,,,,,,,,,,,,,,,,,
,,,,,,,,,,,,,,,,,,2019-05-23_20h20.01.183,Probabilistic Learning,3.1.0,60,,,,,c,1,0.429,1,0,6,0,1,5,hiragana1.xlsx,hiragana11.xlsx,6,0,180,12,1,179,O,d,c,,c,,,,,,,,,,,,,,,,,,,,,
,,,,,,,,,,,,,,,,,,2019-05-23_20h20.01.183,Probabilistic Learning,3.1.0,60,,,,,c,1,0.396,1,0,6,0,1,5,hiragana1.xlsx,hiragana11.xlsx,6,0,180,3,1,179,A,a,c,c,,,,,,,,,,,,,,,,,,,,,,
,,,,,,,,,,,,,,,,,,2019-05-23_20h20.01.183,Probabilistic Learning,3.1.0,60,,,,,c,1,0.311,1,0,6,0,1,5,hiragana1.xlsx,hiragana11.xlsx,6,0,180,22,1,179,I,L,c,,,c,,,,,,,,,,,,,,,,,,,,
,,,,,,,,,,,,,,,,,,2019-05-23_20h20.01.183,Probabilistic Learning,3.1.0,60,,,,,m,1,0.346,1,0,6,0,1,5,hiragana1.xlsx,hiragana11.xlsx,6,0,180,16,1,179,d,O,m,,m,,,,,,,,,,,,,,,,,,,,,
,,,,,,,,,,,,,,,,,,2019-05-23_20h20.01.183,Probabilistic Learning,3.1.0,60,,,,,c,1,0.446,1,0,6,0,1,5,hiragana1.xlsx,hiragana11.xlsx,6,0,180,0,1,179,A,a,c,c,,,,,,,,,,,,,,,,,,,,,,
,,,,,,,,,,,,,,,,,,2019-05-23_20h20.01.183,Probabilistic Learning,3.1.0,60,,,,,m,0,0.347,1,0,6,0,1,5,hiragana1.xlsx,hiragana11.xlsx,6,0,180,28,1,179,L,I,c,,,m,,,,,,,,,,,,,,,,,,,,
,,,,,,,,,,,,,,,,,,2019-05-23_20h20.01.183,Probabilistic Learning,3.1.0,60,,,,,c,0,0.379,1,0,6,0,1,5,hiragana1.xlsx,hiragana11.xlsx,6,0,180,8,1,179,A,a,m,c,,,,,,,,,,,,,,,,,,,,,,
,,,,,,,,,,,,,,,,,,2019-05-23_20h20.01.183,Probabilistic Learning,3.1.0,60,,,,,c,1,0.393,1,0,6,0,1,5,hiragana1.xlsx,hiragana11.xlsx,6,0,180,10,1,179,O,d,c,,c,,,,,,,,,,,,,,,,,,,,,
,,,,,,,,,,,,,,,,,,2019-05-23_20h20.01.183,Probabilistic Learning,3.1.0,60,,,,,c,0,0.379,1,0,6,0,1,5,hiragana1.xlsx,hiragana11.xlsx,6,0,180,26,1,179,I,L,m,,,c,,,,,,,,,,,,,,,,,,,,
,,,,,,,,,,,,,,,,,,2019-05-23_20h20.01.183,Probabilistic Learning,3.1.0,60,,,,,m,1,0.364,1,0,6,0,1,5,hiragana1.xlsx,hiragana11.xlsx,6,0,180,24,1,179,L,I,m,,,m,,,,,,,,,,,,,,,,,,,,
,,,,,,,,,,,,,,,,,,2019-05-23_20h20.01.183,Probabilistic Learning,3.1.0,60,,,,,c,1,0.397,1,0,6,0,1,5,hiragana1.xlsx,hiragana11.xlsx,6,0,180,13,1,179,O,d,c,,c,,,,,,,,,,,,,,,,,,,,,
,,,,,,,,,,,,,,,,,,2019-05-23_20h20.01.183,Probabilistic Learning,3.1.0,60,,,,,c,1,0.363,1,0,6,0,1,5,hiragana1.xlsx,hiragana11.xlsx,6,0,180,2,1,179,A,a,c,c,,,,,,,,,,,,,,,,,,,,,,
,,,,,,,,,,,,,,,,,,2019-05-23_20h20.01.183,Probabilistic Learning,3.1.0,60,,,,,m,1,0.429,1,0,6,0,1,5,hiragana1.xlsx,hiragana11.xlsx,6,0,180,15,1,179,d,O,m,,m,,,,,,,,,,,,,,,,,,,,,
,,,,,,,,,,,,,,,,,,2019-05-23_20h20.01.183,Probabilistic Learning,3.1.0,60,,,,,c,0,0.314,1,0,6,0,1,5,hiragana1.xlsx,hiragana11.xlsx,6,0,180,6,1,179,a,A,m,m,,,,,,,,,,,,,,,,,,,,,,
,,,,,,,,,,,,,,,,,,2019-05-23_20h20.01.183,Probabilistic Learning,3.1.0,60,,,,,c,1,0.447,1,0,6,0,1,5,hiragana1.xlsx,hiragana11.xlsx,6,0,180,11,1,179,O,d,c,,c,,,,,,,,,,,,,,,,,,,,,
,,,,,,,,,,,,,,,,,,2019-05-23_20h20.01.183,Probabilistic Learning,3.1.0,60,,,,,c,1,0.347,1,0,6,0,1,5,hiragana1.xlsx,hiragana11.xlsx,6,0,180,1,1,179,A,a,c,c,,,,,,,,,,,,,,,,,,,,,,
,,,,,,,,,,,,,,,,,,2019-05-23_20h20.01.183,Probabilistic Learning,3.1.0,60,,,,,m,0,0.463,1,0,6,0,1,5,hiragana1.xlsx,hiragana11.xlsx,6,0,180,9,1,179,a,A,c,m,,,,,,,,,,,,,,,,,,,,,,
,,,,,,,,,,,,,,,,,,2019-05-23_20h20.01.183,Probabilistic Learning,3.1.0,60,,,,,m,1,0.431,1,0,6,0,1,5,hiragana1.xlsx,hiragana11.xlsx,6,0,180,23,1,179,L,I,m,,,m,,,,,,,,,,,,,,,,,,,,
,,,,,,,,,,,,,,,,,,2019-05-23_20h20.01.183,Probabilistic Learning,3.1.0,60,,,,,m,1,0.397,1,0,6,0,1,5,hiragana1.xlsx,hiragana11.xlsx,6,0,180,14,1,179,d,O,m,,m,,,,,,,,,,,,,,,,,,,,,
,,,,,,,,,,,,,,,,,,2019-05-23_20h20.01.183,Probabilistic Learning,3.1.0,60,,,,,m,0,0.396,1,0,6,0,1,5,hiragana1.xlsx,hiragana11.xlsx,6,0,180,9,1,179,a,A,c,m,,,,,,,,,,,,,,,,,,,,,,
,,,,,,,,,,,,,,,,,,2019-05-23_20h20.01.183,Probabilistic Learning,3.1.0,60,,,,,m,0,0.347,1,0,6,0,1,5,hiragana1.xlsx,hiragana11.xlsx,6,0,180,17,1,179,d,O,c,,m,,,,,,,,,,,,,,,,,,,,,
,,,,,,,,,,,,,,,,,,2019-05-23_20h20.01.183,Probabilistic Learning,3.1.0,60,,,,,m,0,0.363,1,0,6,0,1,5,hiragana1.xlsx,hiragana11.xlsx,6,0,180,29,1,179,L,I,c,,,m,,,,,,,,,,,,,,,,,,,,
,,,,,,,,,,,,,,,,,,2019-05-23_20h20.01.183,Probabilistic Learning,3.1.0,60,,,,,c,1,0.411,1,0,6,0,1,5,hiragana1.xlsx,hiragana11.xlsx,6,0,180,0,1,179,A,a,c,c,,,,,,,,,,,,,,,,,,,,,,
,,,,,,,,,,,,,,,,,,2019-05-23_20h20.01.183,Probabilistic Learning,3.1.0,60,,,,,m,1,0.33,1,0,6,0,1,5,hiragana1.xlsx,hiragana11.xlsx,6,0,180,7,1,179,a,A,m,m,,,,,,,,,,,,,,,,,,,,,,
,,,,,,,,,,,,,,,,,,2019-05-23_20h20.01.183,Probabilistic Learning,3.1.0,60,,,,,c,1,0.447,1,0,6,0,1,5,hiragana1.xlsx,hiragana11.xlsx,6,0,180,2,1,179,A,a,c,c,,,,,,,,,,,,,,,,,,,,,,
,,,,,,,,,,,,,,,,,,2019-05-23_20h20.01.183,Probabilistic Learning,3.1.0,60,,,,,m,0,0.346,1,0,6,0,1,5,hiragana1.xlsx,hiragana11.xlsx,6,0,180,28,1,179,L,I,c,,,m,,,,,,,,,,,,,,,,,,,,
,,,,,,,,,,,,,,,,,,2019-05-23_20h20.01.183,Probabilistic Learning,3.1.0,60,,,,,c,0,0.364,1,0,6,0,1,5,hiragana1.xlsx,hiragana11.xlsx,6,0,180,4,1,179,a,A,m,m,,,,,,,,,,,,,,,,,,,,,,
,,,,,,,,,,,,,,,,,,2019-05-23_20h20.01.183,Probabilistic Learning,3.1.0,60,,,,,c,1,0.379,1,0,6,0,1,5,hiragana1.xlsx,hiragana11.xlsx,6,0,180,3,1,179,A,a,c,c,,,,,,,,,,,,,,,,,,,,,,
,,,,,,,,,,,,,,,,,,2019-05-23_20h20.01.183,Probabilistic Learning,3.1.0,60,,,,,m,1,0.329,1,0,6,0,1,5,hiragana1.xlsx,hiragana11.xlsx,6,0,180,5,1,179,a,A,m,m,,,,,,,,,,,,,,,,,,,,,,
,,,,,,,,,,,,,,,,,,2019-05-23_20h20.01.183,Probabilistic Learning,3.1.0,60,,,,,m,1,0.295,1,0,6,0,1,5,hiragana1.xlsx,hiragana11.xlsx,6,0,180,25,1,179,L,I,m,,,m,,,,,,,,,,,,,,,,,,,,
,,,,,,,,,,,,,,,,,,2019-05-23_20h20.01.183,Probabilistic Learning,3.1.0,60,,,,,c,0,0.33,1,0,6,0,1,5,hiragana1.xlsx,hiragana11.xlsx,6,0,180,27,1,179,I,L,m,,,c,,,,,,,,,,,,,,,,,,,,
,,,,,,,,,,,,,,,,,,2019-05-23_20h20.01.183,Probabilistic Learning,3.1.0,60,,,,,c,0,0.314,1,0,6,0,1,5,hiragana1.xlsx,hiragana11.xlsx,6,0,180,26,1,179,I,L,m,,,c,,,,,,,,,,,,,,,,,,,,
,,,,,,,,,,,,,,,,,,2019-05-23_20h20.01.183,Probabilistic Learning,3.1.0,60,,,,,m,1,0.347,1,0,6,0,1,5,hiragana1.xlsx,hiragana11.xlsx,6,0,180,6,1,179,a,A,m,m,,,,,,,,,,,,,,,,,,,,,,
,,,,,,,,,,,,,,,,,,2019-05-23_20h20.01.183,Probabilistic Learning,3.1.0,60,,,,,m,1,0.329,1,0,6,0,1,5,hiragana1.xlsx,hiragana11.xlsx,6,0,180,23,1,179,L,I,m,,,m,,,,,,,,,,,,,,,,,,,,
,,,,,,,,,,,,,,,,,,2019-05-23_20h20.01.183,Probabilistic Learning,3.1.0,60,,,,,c,0,0.397,1,0,6,0,1,5,hiragana1.xlsx,hiragana11.xlsx,6,0,180,14,1,179,d,O,m,,m,,,,,,,,,,,,,,,,,,,,,
,,,,,,,,,,,,,,,,,,2019-05-23_20h20.01.183,Probabilistic Learning,3.1.0,60,,,,,c,1,0.347,1,0,6,0,1,5,hiragana1.xlsx,hiragana11.xlsx,6,0,180,22,1,179,I,L,c,,,c,,,,,,,,,,,,,,,,,,,,
,,,,,,,,,,,,,,,,,,2019-05-23_20h20.01.183,Probabilistic Learning,3.1.0,60,,,,,c,0,0.429,1,0,6,0,1,5,hiragana1.xlsx,hiragana11.xlsx,6,0,180,19,1,179,O,d,m,,c,,,,,,,,,,,,,,,,,,,,,
,,,,,,,,,,,,,,,,,,2019-05-23_20h20.01.183,Probabilistic Learning,3.1.0,60,,,,,m,1,0.363,1,0,6,0,1,5,hiragana1.xlsx,hiragana11.xlsx,6,0,180,15,1,179,d,O,m,,m,,,,,,,,,,,,,,,,,,,,,
,,,,,,,,,,,,,,,,,,2019-05-23_20h20.01.183,Probabilistic Learning,3.1.0,60,,,,,c,1,0.346,1,0,6,0,1,5,hiragana1.xlsx,hiragana11.xlsx,6,0,180,21,1,179,I,L,c,,,c,,,,,,,,,,,,,,,,,,,,
,,,,,,,,,,,,,,,,,,2019-05-23_20h20.01.183,Probabilistic Learning,3.1.0,60,,,,,m,0,0.312,1,0,6,0,1,5,hiragana1.xlsx,hiragana11.xlsx,6,0,180,11,1,179,O,d,c,,c,,,,,,,,,,,,,,,,,,,,,
,,,,,,,,,,,,,,,,,,2019-05-23_20h20.01.183,Probabilistic Learning,3.1.0,60,,,,,m,0,0.381,1,0,6,0,1,5,hiragana1.xlsx,hiragana11.xlsx,6,0,180,18,1,179,d,O,c,,m,,,,,,,,,,,,,,,,,,,,,
,,,,,,,,,,,,,,,,,,2019-05-23_20h20.01.183,Probabilistic Learning,3.1.0,60,,,,,c,1,0.297,1,0,6,0,1,5,hiragana1.xlsx,hiragana11.xlsx,6,0,180,20,1,179,I,L,c,,,c,,,,,,,,,,,,,,,,,,,,
,,,,,,,,,,,,,,,,,,2019-05-23_20h20.01.183,Probabilistic Learning,3.1.0,60,,,,,m,0,0.38,1,0,6,0,1,5,hiragana1.xlsx,hiragana11.xlsx,6,0,180,13,1,179,O,d,c,,c,,,,,,,,,,,,,,,,,,,,,
,,,,,,,,,,,,,,,,,,2019-05-23_20h20.01.183,Probabilistic Learning,3.1.0,60,,,,,m,1,0.345,1,0,6,0,1,5,hiragana1.xlsx,hiragana11.xlsx,6,0,180,16,1,179,d,O,m,,m,,,,,,,,,,,,,,,,,,,,,
,,,,,,,,,,,,,,,,,,2019-05-23_20h20.01.183,Probabilistic Learning,3.1.0,60,,,,,c,1,0.346,1,0,6,0,1,5,hiragana1.xlsx,hiragana11.xlsx,6,0,180,12,1,179,O,d,c,,c,,,,,,,,,,,,,,,,,,,,,
,,,,,,,,,,,,,,,,,,2019-05-23_20h20.01.183,Probabilistic Learning,3.1.0,60,,,,,m,0,0.38,1,0,6,0,1,5,hiragana1.xlsx,hiragana11.xlsx,6,0,180,1,1,179,A,a,c,c,,,,,,,,,,,,,,,,,,,,,,
,,,,,,,,,,,,,,,,,,2019-05-23_20h20.01.183,Probabilistic Learning,3.1.0,60,,,,,c,1,0.397,1,0,6,0,1,5,hiragana1.xlsx,hiragana11.xlsx,6,0,180,10,1,179,O,d,c,,c,,,,,,,,,,,,,,,,,,,,,
,,,,,,,,,,,,,,,,,,2019-05-23_20h20.01.183,Probabilistic Learning,3.1.0,60,,,,,m,1,0.362,1,0,6,0,1,5,hiragana1.xlsx,hiragana11.xlsx,6,0,180,24,1,179,L,I,m,,,m,,,,,,,,,,,,,,,,,,,,
,,,,,,,,,,,,,,,,,,2019-05-23_20h20.01.183,Probabilistic Learning,3.1.0,60,,,,,c,0,0.38,1,0,6,0,1,5,hiragana1.xlsx,hiragana11.xlsx,,,,,,,,,,,,,space,0.893,space,0.507,m,0.214,2,0,92,23,1,91,a,O,B,C,,m,,
,,,,,,,,,,,,,,,,,,2019-05-23_20h20.01.183,Probabilistic Learning,3.1.0,60,,,,,,,,1,0,6,0,1,5,hiragana1.xlsx,hiragana11.xlsx,,,,,,,,,,,,,,,,,m,0.162,2,0,92,39,1,91,I,O,e,c,,,,
,,,,,,,,,,,,,,,,,,2019-05-23_20h20.01.183,Probabilistic Learning,3.1.0,60,,,,,,,,1,0,6,0,1,5,hiragana1.xlsx,hiragana11.xlsx,,,,,,,,,,,,,,,,,m,0.112,2,0,92,34,1,91,a,L,B,F,,m,,
,,,,,,,,,,,,,,,,,,2019-05-23_20h20.01.183,Probabilistic Learning,3.1.0,60,,,,,,,,1,0,6,0,1,5,hiragana1.xlsx,hiragana11.xlsx,,,,,,,,,,,,,,,,,m,0.045,2,0,92,40,1,91,O,L,c,f,,,,
,,,,,,,,,,,,,,,,,,2019-05-23_20h20.01.183,Probabilistic Learning,3.1.0,60,,,,,,,,1,0,6,0,1,5,hiragana1.xlsx,hiragana11.xlsx,,,,,,,,,,,,,,,,,m,0.296,2,0,92,38,1,91,O,I,C,E,,,,
,,,,,,,,,,,,,,,,,,2019-05-23_20h20.01.183,Probabilistic Learning,3.1.0,60,,,,,,,,1,0,6,0,1,5,hiragana1.xlsx,hiragana11.xlsx,,,,,,,,,,,,,,,,,m,0.014,2,0,92,16,1,91,I,A,E,A,m,,,
,,,,,,,,,,,,,,,,,,2019-05-23_20h20.01.183,Probabilistic Learning,3.1.0,60,,,,,,,,1,0,6,0,1,5,hiragana1.xlsx,hiragana11.xlsx,,,,,,,,,,,,,,,,,m,0.112,2,0,92,41,1,91,L,O,f,c,,,,
,,,,,,,,,,,,,,,,,,2019-05-23_20h20.01.183,Probabilistic Learning,3.1.0,60,,,,,,,,1,0,6,0,1,5,hiragana1.xlsx,hiragana11.xlsx,,,,,,,,,,,,,,,,,m,0.145,2,0,92,35,1,91,a,L,B,F,,m,,
,,,,,,,,,,,,,,,,,,2019-05-23_20h20.01.183,Probabilistic Learning,3.1.0,60,,,,,,,,1,0,6,0,1,5,hiragana1.xlsx,hiragana11.xlsx,,,,,,,,,,,,,,,,,m,0.013,2,0,92,6,1,91,A,O,A,C,c,,,
,,,,,,,,,,,,,,,,,,2019-05-23_20h20.01.183,Probabilistic Learning,3.1.0,60,,,,,,,,1,0,6,0,1,5,hiragana1.xlsx,hiragana11.xlsx,,,,,,,,,,,,,,,,,m,0.097,2,0,92,24,1,91,O,a,C,B,,c,,
,,,,,,,,,,,,,,,,,,2019-05-23_20h20.01.183,Probabilistic Learning,3.1.0,60,,,,,,,,1,0,6,0,1,5,hiragana1.xlsx,hiragana11.xlsx,,,,,,,,,,,,,,,,,m,0.147,2,0,92,7,1,91,A,O,A,C,c,,,
,,,,,,,,,,,,,,,,,,2019-05-23_20h20.01.183,Probabilistic Learning,3.1.0,60,,,,,,,,1,0,6,0,1,5,hiragana1.xlsx,hiragana11.xlsx,,,,,,,,,,,,,,,,,m,0.129,2,0,92,27,1,91,a,d,B,D,,m,,
,,,,,,,,,,,,,,,,,,2019-05-23_20h20.01.183,Probabilistic Learning,3.1.0,60,,,,,,,,1,0,6,0,1,5,hiragana1.xlsx,hiragana11.xlsx,,,,,,,,,,,,,,,,,m,0.146,2,0,92,18,1,91,A,L,A,F,c,,,
,,,,,,,,,,,,,,,,,,2019-05-23_20h20.01.183,Probabilistic Learning,3.1.0,60,,,,,,,,1,0,6,0,1,5,hiragana1.xlsx,hiragana11.xlsx,,,,,,,,,,,,,,,,,m,0.061,2,0,92,11,1,91,A,d,A,D,c,,,
,,,,,,,,,,,,,,,,,,2019-05-23_20h20.01.183,Probabilistic Learning,3.1.0,60,,,,,,,,1,0,6,0,1,5,hiragana1.xlsx,hiragana11.xlsx,,,,,,,,,,,,,,,,,m,0.047,2,0,92,17,1,91,I,A,E,A,m,,,
,,,,,,,,,,,,,,,,,,2019-05-23_20h20.01.183,Probabilistic Learning,3.1.0,60,,,,,,,,1,0,6,0,1,5,hiragana1.xlsx,hiragana11.xlsx,,,,,,,,,,,,,,,,,m,0.03,2,0,92,3,1,91,d,O,D,C,,,,
,,,,,,,,,,,,,,,,,,2019-05-23_20h20.01.183,Probabilistic Learning,3.1.0,60,,,,,,,,1,0,6,0,1,5,hiragana1.xlsx,hiragana11.xlsx,,,,,,,,,,,,,,,,,m,0.164,2,0,92,4,1,91,I,L,E,F,,,,
,,,,,,,,,,,,,,,,,,2019-05-23_20h20.01.183,Probabilistic Learning,3.1.0,60,,,,,,,,1,0,6,0,1,5,hiragana1.xlsx,hiragana11.xlsx,,,,,,,,,,,,,,,,,m,0.129,2,0,92,26,1,91,a,d,B,D,,m,,
,,,,,,,,,,,,,,,,,,2019-05-23_20h20.01.183,Probabilistic Learning,3.1.0,60,,,,,,,,1,0,6,0,1,5,hiragana1.xlsx,hiragana11.xlsx,,,,,,,,,,,,,,,,,m,0.078,2,0,92,19,1,91,A,L,A,F,c,,,
,,,,,,,,,,,,,,,,,,2019-05-23_20h20.01.183,Probabilistic Learning,3.1.0,60,,,,,,,,1,0,6,0,1,5,hiragana1.xlsx,hiragana11.xlsx,,,,,,,,,,,,,,,,,m,0.048,2,0,92,9,1,91,O,A,C,A,m,,,
,,,,,,,,,,,,,,,,,,2019-05-23_20h20.01.183,Probabilistic Learning,3.1.0,60,,,,,,,,1,0,6,0,1,5,hiragana1.xlsx,hiragana11.xlsx,,,,,,,,,,,,,,,,,m,0.012,2,0,92,32,1,91,I,a,E,B,,c,,
,,,,,,,,,,,,,,,,,,2019-05-23_20h20.01.183,Probabilistic Learning,3.1.0,60,,,,,,,,1,0,6,0,1,5,hiragana1.xlsx,hiragana11.xlsx,,,,,,,,,,,,,,,,,m,0.145,2,0,92,25,1,91,O,a,C,B,,c,,
,,,,,,,,,,,,,,,,,,2019-05-23_20h20.01.183,Probabilistic Learning,3.1.0,60,,,,,,,,1,0,6,0,1,5,hiragana1.xlsx,hiragana11.xlsx,,,,,,,,,,,,,,,,,m,0.13,2,0,92,10,1,91,A,d,A,D,c,,,
,,,,,,,,,,,,,,,,,,2019-05-23_20h20.01.183,Probabilistic Learning,3.1.0,60,,,,,,,,1,0,6,0,1,5,hiragana1.xlsx,hiragana11.xlsx,,,,,,,,,,,,,,,,,m,0.095,2,0,92,14,1,91,A,I,A,E,c,,,
,,,,,,,,,,,,,,,,,,2019-05-23_20h20.01.183,Probabilistic Learning,3.1.0,60,,,,,,,,1,0,6,0,1,5,hiragana1.xlsx,hiragana11.xlsx,,,,,,,,,,,,,,,,,m,0.014,2,0,92,44,1,91,d,L,d,f,,,,
,,,,,,,,,,,,,,,,,,2019-05-23_20h20.01.183,Probabilistic Learning,3.1.0,60,,,,,,,,1,0,6,0,1,5,hiragana1.xlsx,hiragana11.xlsx,,,,,,,,,,,,,,,,,m,0.081,2,0,92,1,1,91,a,A,B,A,,,,
,,,,,,,,,,,,,,,,,,2019-05-23_20h20.01.183,Probabilistic Learning,3.1.0,60,,,,,,,,1,0,6,0,1,5,hiragana1.xlsx,hiragana11.xlsx,,,,,,,,,,,,,,,,,m,0.147,2,0,92,0,1,91,A,a,A,B,,,,
,,,,,,,,,,,,,,,,,,2019-05-23_20h20.01.183,Probabilistic Learning,3.1.0,60,,,,,,,,1,0,6,0,1,5,hiragana1.xlsx,hiragana11.xlsx,,,,,,,,,,,,,,,,,m,0.13,2,0,92,22,1,91,a,O,B,C,,m,,
,,,,,,,,,,,,,,,,,,2019-05-23_20h20.01.183,Probabilistic Learning,3.1.0,60,,,,,,,,1,0,6,0,1,5,hiragana1.xlsx,hiragana11.xlsx,,,,,,,,,,,,,,,,,m,0.045,2,0,92,37,1,91,L,a,F,B,,c,,
,,,,,,,,,,,,,,,,,,2019-05-23_20h20.01.183,Probabilistic Learning,3.1.0,60,,,,,,,,1,0,6,0,1,5,hiragana1.xlsx,hiragana11.xlsx,,,,,,,,,,,,,,,,,m,0.097,2,0,92,8,1,91,O,A,C,A,m,,,
,,,,,,,,,,,,,,,,,,2019-05-23_20h20.01.183,Probabilistic Learning,3.1.0,60,,,,,,,,1,0,6,0,1,5,hiragana1.xlsx,hiragana11.xlsx,,,,,,,,,,,,,,,,,m,0.179,2,0,92,33,1,91,I,a,E,B,,c,,
,,,,,,,,,,,,,,,,,,2019-05-23_20h20.01.183,Probabilistic Learning,3.1.0,60,,,,,,,,1,0,6,0,1,5,hiragana1.xlsx,hiragana11.xlsx,,,,,,,,,,,,,,,,,m,0.098,2,0,92,43,1,91,I,d,e,d,,,,
,,,,,,,,,,,,,,,,,,2019-05-23_20h20.01.183,Probabilistic Learning,3.1.0,60,,,,,,,,1,0,6,0,1,5,hiragana1.xlsx,hiragana11.xlsx,,,,,,,,,,,,,,,,,m,0.163,2,0,92,31,1,91,a,I,B,E,,m,,
,,,,,,,,,,,,,,,,,,2019-05-23_20h20.01.183,Probabilistic Learning,3.1.0,60,,,,,,,,1,0,6,0,1,5,hiragana1.xlsx,hiragana11.xlsx,,,,,,,,,,,,,,,,,m,0.13,2,0,92,30,1,91,a,I,B,E,,m,,
,,,,,,,,,,,,,,,,,,2019-05-23_20h20.01.183,Probabilistic Learning,3.1.0,60,,,,,,,,1,0,6,0,1,5,hiragana1.xlsx,hiragana11.xlsx,,,,,,,,,,,,,,,,,m,0.131,2,0,92,13,1,91,d,A,D,A,m,,,
,,,,,,,,,,,,,,,,,,2019-05-23_20h20.01.183,Probabilistic Learning,3.1.0,60,,,,,,,,1,0,6,0,1,5,hiragana1.xlsx,hiragana11.xlsx,,,,,,,,,,,,,,,,,m,0.127,2,0,92,20,1,91,L,A,F,A,m,,,
,,,,,,,,,,,,,,,,,,2019-05-23_20h20.01.183,Probabilistic Learning,3.1.0,60,,,,,,,,1,0,6,0,1,5,hiragana1.xlsx,hiragana11.xlsx,,,,,,,,,,,,,,,,,m,0.014,2,0,92,45,1,91,L,d,f,d,,,,
,,,,,,,,,,,,,,,,,,2019-05-23_20h20.01.183,Probabilistic Learning,3.1.0,60,,,,,,,,1,0,6,0,1,5,hiragana1.xlsx,hiragana11.xlsx,,,,,,,,,,,,,,,,,m,0.029,2,0,92,2,1,91,O,d,C,D,,,,
,,,,,,,,,,,,,,,,,,2019-05-23_20h20.01.183,Probabilistic Learning,3.1.0,60,,,,,,,,1,0,6,0,1,5,hiragana1.xlsx,hiragana11.xlsx,,,,,,,,,,,,,,,,,m,0.064,2,0,92,5,1,91,L,I,F,E,,,,
,,,,,,,,,,,,,,,,,,2019-05-23_20h20.01.183,Probabilistic Learning,3.1.0,60,,,,,,,,1,0,6,0,1,5,hiragana1.xlsx,hiragana11.xlsx,,,,,,,,,,,,,,,,,m,0.247,2,0,92,15,1,91,A,I,A,E,c,,,
,,,,,,,,,,,,,,,,,,2019-05-23_20h20.01.183,Probabilistic Learning,3.1.0,60,,,,,,,,1,0,6,0,1,5,hiragana1.xlsx,hiragana11.xlsx,,,,,,,,,,,,,,,,,m,0.097,2,0,92,36,1,91,L,a,F,B,,c,,
,,,,,,,,,,,,,,,,,,2019-05-23_20h20.01.183,Probabilistic Learning,3.1.0,60,,,,,,,,1,0,6,0,1,5,hiragana1.xlsx,hiragana11.xlsx,,,,,,,,,,,,,,,,,m,0.181,2,0,92,28,1,91,d,a,D,B,,c,,
,,,,,,,,,,,,,,,,,,2019-05-23_20h20.01.183,Probabilistic Learning,3.1.0,60,,,,,,,,1,0,6,0,1,5,hiragana1.xlsx,hiragana11.xlsx,,,,,,,,,,,,,,,,,m,0.214,2,0,92,21,1,91,L,A,F,A,m,,,
,,,,,,,,,,,,,,,,,,2019-05-23_20h20.01.183,Probabilistic Learning,3.1.0,60,,,,,,,,1,0,6,0,1,5,hiragana1.xlsx,hiragana11.xlsx,,,,,,,,,,,,,,,,,m,0.197,2,0,92,12,1,91,d,A,D,A,m,,,
,,,,,,,,,,,,,,,,,,2019-05-23_20h20.01.183,Probabilistic Learning,3.1.0,60,,,,,,,,1,0,6,0,1,5,hiragana1.xlsx,hiragana11.xlsx,,,,,,,,,,,,,,,,,m,0.081,2,0,92,29,1,91,d,a,D,B,,c,,
,,,,,,,,,,,,,,,,,,2019-05-23_20h20.01.183,Probabilistic Learning,3.1.0,60,,,,,,,,1,0,6,0,1,5,hiragana1.xlsx,hiragana11.xlsx,,,,,,,,,,,,,,,,,m,0.197,2,0,92,42,1,91,d,I,d,e,,,,
,,,,,,,,,,,,,,,,,,2019-05-23_20h20.01.183,Probabilistic Learning,3.1.0,60,,,,,,,,1,0,6,0,1,5,hiragana1.xlsx,hiragana11.xlsx,,,,,,,,,,,,,,,,,m,0.129,2,0,92,5,1,91,L,I,F,E,,,,
,,,,,,,,,,,,,,,,,,2019-05-23_20h20.01.183,Probabilistic Learning,3.1.0,60,,,,,,,,1,0,6,0,1,5,hiragana1.xlsx,hiragana11.xlsx,,,,,,,,,,,,,,,,,m,0.197,2,0,92,3,1,91,d,O,D,C,,,,
,,,,,,,,,,,,,,,,,,2019-05-23_20h20.01.183,Probabilistic Learning,3.1.0,60,,,,,,,,1,0,6,0,1,5,hiragana1.xlsx,hiragana11.xlsx,,,,,,,,,,,,,,,,,m,0.03,2,0,92,11,1,91,A,d,A,D,c,,,
,,,,,,,,,,,,,,,,,,2019-05-23_20h20.01.183,Probabilistic Learning,3.1.0,60,,,,,,,,1,0,6,0,1,5,hiragana1.xlsx,hiragana11.xlsx,,,,,,,,,,,,,,,,,m,0.147,2,0,92,31,1,91,a,I,B,E,,m,,
,,,,,,,,,,,,,,,,,,2019-05-23_20h20.01.183,Probabilistic Learning,3.1.0,60,,,,,,,,1,0,6,0,1,5,hiragana1.xlsx,hiragana11.xlsx,,,,,,,,,,,,,,,,,m,0.148,2,0,92,29,1,91,d,a,D,B,,c,,
,,,,,,,,,,,,,,,,,,2019-05-23_20h20.01.183,Probabilistic Learning,3.1.0,60,,,,,,,,1,0,6,0,1,5,hiragana1.xlsx,hiragana11.xlsx,,,,,,,,,,,,,,,,,m,0.195,2,0,92,22,1,91,a,O,B,C,,m,,
,,,,,,,,,,,,,,,,,,2019-05-23_20h20.01.183,Probabilistic Learning,3.1.0,60,,,,,,,,1,0,6,0,1,5,hiragana1.xlsx,hiragana11.xlsx,,,,,,,,,,,,,,,,,m,0.131,2,0,92,37,1,91,L,a,F,B,,c,,
,,,,,,,,,,,,,,,,,,2019-05-23_20h20.01.183,Probabilistic Learning,3.1.0,60,,,,,,,,1,0,6,0,1,5,hiragana1.xlsx,hiragana11.xlsx,,,,,,,,,,,,,,,,,m,0.195,2,0,92,19,1,91,A,L,A,F,c,,,
,,,,,,,,,,,,,,,,,,2019-05-23_20h20.01.183,Probabilistic Learning,3.1.0,60,,,,,,,,1,0,6,0,1,5,hiragana1.xlsx,hiragana11.xlsx,,,,,,,,,,,,,,,,,m,0.196,2,0,92,26,1,91,a,d,B,D,,m,,
,,,,,,,,,,,,,,,,,,2019-05-23_20h20.01.183,Probabilistic Learning,3.1.0,60,,,,,,,,1,0,6,0,1,5,hiragana1.xlsx,hiragana11.xlsx,,,,,,,,,,,,,,,,,m,0.18,2,0,92,40,1,91,O,L,c,f,,,,
,,,,,,,,,,,,,,,,,,2019-05-23_20h20.01.183,Probabilistic Learning,3.1.0,60,,,,,,,,1,0,6,0,1,5,hiragana1.xlsx,hiragana11.xlsx,,,,,,,,,,,,,,,,,m,0.148,2,0,92,1,1,91,a,A,B,A,,,,
,,,,,,,,,,,,,,,,,,2019-05-23_20h20.01.183,Probabilistic Learning,3.1.0,60,,,,,,,,1,0,6,0,1,5,hiragana1.xlsx,hiragana11.xlsx,,,,,,,,,,,,,,,,,m,0.145,2,0,92,14,1,91,A,I,A,E,c,,,
,,,,,,,,,,,,,,,,,,2019-05-23_20h20.01.183,Probabilistic Learning,3.1.0,60,,,,,,,,1,0,6,0,1,5,hiragana1.xlsx,hiragana11.xlsx,,,,,,,,,,,,,,,,,m,0.048,2,0,92,44,1,91,d,L,d,f,,,,
,,,,,,,,,,,,,,,,,,2019-05-23_20h20.01.183,Probabilistic Learning,3.1.0,60,,,,,,,,1,0,6,0,1,5,hiragana1.xlsx,hiragana11.xlsx,,,,,,,,,,,,,,,,,m,0.196,2,0,92,10,1,91,A,d,A,D,c,,,
,,,,,,,,,,,,,,,,,,2019-05-23_20h20.01.183,Probabilistic Learning,3.1.0,60,,,,,,,,1,0,6,0,1,5,hiragana1.xlsx,hiragana11.xlsx,,,,,,,,,,,,,,,,,m,0.147,2,0,92,17,1,91,I,A,E,A,m,,,
,,,,,,,,,,,,,,,,,,2019-05-23_20h20.01.183,Probabilistic Learning,3.1.0,60,,,,,,,,1,0,6,0,1,5,hiragana1.xlsx,hiragana11.xlsx,,,,,,,,,,,,,,,,,m,0.111,2,0,92,42,1,91,d,I,d,e,,,,
,,,,,,,,,,,,,,,,,,2019-05-23_20h20.01.183,Probabilistic Learning,3.1.0,60,,,,,,,,1,0,6,0,1,5,hiragana1.xlsx,hiragana11.xlsx,,,,,,,,,,,,,,,,,m,0.08,2,0,92,9,1,91,O,A,C,A,m,,,
,,,,,,,,,,,,,,,,,,2019-05-23_20h20.01.183,Probabilistic Learning,3.1.0,60,,,,,,,,1,0,6,0,1,5,hiragana1.xlsx,hiragana11.xlsx,,,,,,,,,,,,,,,,,m,0.495,2,0,92,7,1,91,A,O,A,C,c,,,
,,,,,,,,,,,,,,,,,,2019-05-23_20h20.01.183,Probabilistic Learning,3.1.0,60,,,,,,,,1,0,6,0,1,5,hiragana1.xlsx,hiragana11.xlsx,,,,,,,,,,,,,,,,,m,0.096,2,0,92,16,1,91,I,A,E,A,m,,,
,,,,,,,,,,,,,,,,,,2019-05-23_20h20.01.183,Probabilistic Learning,3.1.0,60,,,,,,,,1,0,6,0,1,5,hiragana1.xlsx,hiragana11.xlsx,,,,,,,,,,,,,,,,,m,0.145,2,0,92,2,1,91,O,d,C,D,,,,
,,,,,,,,,,,,,,,,,,2019-05-23_20h20.01.183,Probabilistic Learning,3.1.0,60,,,,,,,,1,0,6,0,1,5,hiragana1.xlsx,hiragana11.xlsx,,,,,,,,,,,,,,,,,m,0.031,2,0,92,41,1,91,L,O,f,c,,,,
,,,,,,,,,,,,,,,,,,2019-05-23_20h20.01.183,Probabilistic Learning,3.1.0,60,,,,,,,,1,0,6,0,1,5,hiragana1.xlsx,hiragana11.xlsx,,,,,,,,,,,,,,,,,m,0.031,2,0,92,8,1,91,O,A,C,A,m,,,
,,,,,,,,,,,,,,,,,,2019-05-23_20h20.01.183,Probabilistic Learning,3.1.0,60,,,,,,,,1,0,6,0,1,5,hiragana1.xlsx,hiragana11.xlsx,,,,,,,,,,,,,,,,,m,0.029,2,0,92,21,1,91,L,A,F,A,m,,,
,,,,,,,,,,,,,,,,,,2019-05-23_20h20.01.183,Probabilistic Learning,3.1.0,60,,,,,,,,1,0,6,0,1,5,hiragana1.xlsx,hiragana11.xlsx,,,,,,,,,,,,,,,,,m,0.246,2,0,92,0,1,91,A,a,A,B,,,,
,,,,,,,,,,,,,,,,,,2019-05-23_20h20.01.183,Probabilistic Learning,3.1.0,60,,,,,,,,1,0,6,0,1,5,hiragana1.xlsx,hiragana11.xlsx,,,,,,,,,,,,,,,,,m,0.114,2,0,92,6,1,91,A,O,A,C,c,,,
,,,,,,,,,,,,,,,,,,2019-05-23_20h20.01.183,Probabilistic Learning,3.1.0,60,,,,,,,,1,0,6,0,1,5,hiragana1.xlsx,hiragana11.xlsx,,,,,,,,,,,,,,,,,m,0.131,2,0,92,27,1,91,a,d,B,D,,m,,
,,,,,,,,,,,,,,,,,,2019-05-23_20h20.01.183,Probabilistic Learning,3.1.0,60,,,,,,,,1,0,6,0,1,5,hiragana1.xlsx,hiragana11.xlsx,,,,,,,,,,,,,,,,,m,0.114,2,0,92,28,1,91,d,a,D,B,,c,,
,,,,,,,,,,,,,,,,,,2019-05-23_20h20.01.183,Probabilistic Learning,3.1.0,60,,,,,,,,1,0,6,0,1,5,hiragana1.xlsx,hiragana11.xlsx,,,,,,,,,,,,,,,,,m,0.097,2,0,92,20,1,91,L,A,F,A,m,,,
,,,,,,,,,,,,,,,,,,2019-05-23_20h20.01.183,Probabilistic Learning,3.1.0,60,,,,,,,,1,0,6,0,1,5,hiragana1.xlsx,hiragana11.xlsx,,,,,,,,,,,,,,,,,m,0.146,2,0,92,33,1,91,I,a,E,B,,c,,
,,,,,,,,,,,,,,,,,,2019-05-23_20h20.01.183,Probabilistic Learning,3.1.0,60,,,,,,,,1,0,6,0,1,5,hiragana1.xlsx,hiragana11.xlsx,,,,,,,,,,,,,,,,,m,0.23,2,0,92,38,1,91,O,I,C,E,,,,
,,,,,,,,,,,,,,,,,,2019-05-23_20h20.01.183,Probabilistic Learning,3.1.0,60,,,,,,,,1,0,6,0,1,5,hiragana1.xlsx,hiragana11.xlsx,,,,,,,,,,,,,,,,,m,0.079,2,0,92,18,1,91,A,L,A,F,c,,,
,,,,,,,,,,,,,,,,,,2019-05-23_20h20.01.183,Probabilistic Learning,3.1.0,60,,,,,,,,1,0,6,0,1,5,hiragana1.xlsx,hiragana11.xlsx,,,,,,,,,,,,,,,,,m,0.096,2,0,92,32,1,91,I,a,E,B,,c,,
,,,,,,,,,,,,,,,,,,2019-05-23_20h20.01.183,Probabilistic Learning,3.1.0,60,,,,,,,,1,0,6,0,1,5,hiragana1.xlsx,hiragana11.xlsx,,,,,,,,,,,,,,,,,m,0.229,2,0,92,15,1,91,A,I,A,E,c,,,
,,,,,,,,,,,,,,,,,,2019-05-23_20h20.01.183,Probabilistic Learning,3.1.0,60,,,,,,,,1,0,6,0,1,5,hiragana1.xlsx,hiragana11.xlsx,,,,,,,,,,,,,,,,,m,0.097,2,0,92,13,1,91,d,A,D,A,m,,,
,,,,,,,,,,,,,,,,,,2019-05-23_20h20.01.183,Probabilistic Learning,3.1.0,60,,,,,,,,1,0,6,0,1,5,hiragana1.xlsx,hiragana11.xlsx,,,,,,,,,,,,,,,,,m,0.197,2,0,92,4,1,91,I,L,E,F,,,,
,,,,,,,,,,,,,,,,,,2019-05-23_20h20.01.183,Probabilistic Learning,3.1.0,60,,,,,,,,1,0,6,0,1,5,hiragana1.xlsx,hiragana11.xlsx,,,,,,,,,,,,,,,,,m,0.179,2,0,92,30,1,91,a,I,B,E,,m,,
,,,,,,,,,,,,,,,,,,2019-05-23_20h20.01.183,Probabilistic Learning,3.1.0,60,,,,,,,,1,0,6,0,1,5,hiragana1.xlsx,hiragana11.xlsx,,,,,,,,,,,,,,,,,m,0.196,2,0,92,45,1,91,L,d,f,d,,,,
,,,,,,,,,,,,,,,,,,2019-05-23_20h20.01.183,Probabilistic Learning,3.1.0,60,,,,,,,,1,0,6,0,1,5,hiragana1.xlsx,hiragana11.xlsx,,,,,,,,,,,,,,,,,m,0.197,2,0,92,35,1,91,a,L,B,F,,m,,
,,,,,,,,,,,,,,,,,,2019-05-23_20h20.01.183,Probabilistic Learning,3.1.0,60,,,,,,,,1,0,6,0,1,5,hiragana1.xlsx,hiragana11.xlsx,,,,,,,,,,,,,,,,,m,0.163,2,0,92,34,1,91,a,L,B,F,,m,,
,,,,,,,,,,,,,,,,,,2019-05-23_20h20.01.183,Probabilistic Learning,3.1.0,60,,,,,,,,1,0,6,0,1,5,hiragana1.xlsx,hiragana11.xlsx,,,,,,,,,,,,,,,,,m,0.146,2,0,92,23,1,91,a,O,B,C,,m,,
,,,,,,,,,,,,,,,,,,2019-05-23_20h20.01.183,Probabilistic Learning,3.1.0,60,,,,,,,,1,0,6,0,1,5,hiragana1.xlsx,hiragana11.xlsx,,,,,,,,,,,,,,,,,m,0.214,2,0,92,39,1,91,I,O,e,c,,,,
,,,,,,,,,,,,,,,,,,2019-05-23_20h20.01.183,Probabilistic Learning,3.1.0,60,,,,,,,,1,0,6,0,1,5,hiragana1.xlsx,hiragana11.xlsx,,,,,,,,,,,,,,,,,m,0.047,2,0,92,24,1,91,O,a,C,B,,c,,
,,,,,,,,,,,,,,,,,,2019-05-23_20h20.01.183,Probabilistic Learning,3.1.0,60,,,,,,,,1,0,6,0,1,5,hiragana1.xlsx,hiragana11.xlsx,,,,,,,,,,,,,,,,,m,0.18,2,0,92,36,1,91,L,a,F,B,,c,,
,,,,,,,,,,,,,,,,,,2019-05-23_20h20.01.183,Probabilistic Learning,3.1.0,60,,,,,,,,1,0,6,0,1,5,hiragana1.xlsx,hiragana11.xlsx,,,,,,,,,,,,,,,,,m,0.096,2,0,92,25,1,91,O,a,C,B,,c,,
,,,,,,,,,,,,,,,,,,2019-05-23_20h20.01.183,Probabilistic Learning,3.1.0,60,,,,,,,,1,0,6,0,1,5,hiragana1.xlsx,hiragana11.xlsx,,,,,,,,,,,,,,,,,m,0.131,2,0,92,43,1,91,I,d,e,d,,,,
,,,,,,,,,,,,,,,,,,2019-05-23_20h20.01.183,Probabilistic Learning,3.1.0,60,,,,,,,,1,0,6,0,1,5,hiragana1.xlsx,hiragana11.xlsx,,,,,,,,,,,,,,,,,m,0.179,2,0,92,12,1,91,d,A,D,A,m,,,
,,,,,,,,,,,,,,,,,,2019-05-23_20h20.01.183,Probabilistic Learning,3.1.0,60,,,,,,,,1,0,6,0,1,5,hiragana1.xlsx,hiragana11.xlsx,,,,,,,,,,,,,,,,,,,,,,,,,,,,,,,m,0.21
,,,,,,,,,,,,,,,,,,2019-05-23_20h20.01.183,Probabilistic Learning,3.1.0,60,,,space,1.679,c,1,0.445,1,0,6,2,1,5,hiragana3.xlsx,hiragana31.xlsx,6,0,180,13,1,179,f,e,c,,c,,,,,,,,,,,,,,,,,,,,,
,,,,,,,,,,,,,,,,,,2019-05-23_20h20.01.183,Probabilistic Learning,3.1.0,60,,,,,m,1,0.459,1,0,6,2,1,5,hiragana3.xlsx,hiragana31.xlsx,6,0,180,5,1,179,t,P,m,m,,,,,,,,,,,,,,,,,,,,,,
,,,,,,,,,,,,,,,,,,2019-05-23_20h20.01.183,Probabilistic Learning,3.1.0,60,,,,,m,0,0.511,1,0,6,2,1,5,hiragana3.xlsx,hiragana31.xlsx,6,0,180,29,1,179,q,T,c,,,m,,,,,,,,,,,,,,,,,,,,
,,,,,,,,,,,,,,,,,,2019-05-23_20h20.01.183,Probabilistic Learning,3.1.0,60,,,,,c,0,0.464,1,0,6,2,1,5,hiragana3.xlsx,hiragana31.xlsx,6,0,180,6,1,179,t,P,m,m,,,,,,,,,,,,,,,,,,,,,,
,,,,,,,,,,,,,,,,,,2019-05-23_20h20.01.183,Probabilistic Learning,3.1.0,60,,,,,m,1,0.547,1,0,6,2,1,5,hiragana3.xlsx,hiragana31.xlsx,6,0,180,14,1,179,e,f,m,,m,,,,,,,,,,,,,,,,,,,,,
,,,,,,,,,,,,,,,,,,2019-05-23_20h20.01.183,Probabilistic Learning,3.1.0,60,,,,,c,1,0.481,1,0,6,2,1,5,hiragana3.xlsx,hiragana31.xlsx,6,0,180,3,1,179,P,t,c,c,,,,,,,,,,,,,,,,,,,,,,
,,,,,,,,,,,,,,,,,,2019-05-23_20h20.01.183,Probabilistic Learning,3.1.0,60,,,,,m,0,0.397,1,0,6,2,1,5,hiragana3.xlsx,hiragana31.xlsx,6,0,180,9,1,179,t,P,c,m,,,,,,,,,,,,,,,,,,,,,,
,,,,,,,,,,,,,,,,,,2019-05-23_20h20.01.183,Probabilistic Learning,3.1.0,60,,,,,m,1,0.431,1,0,6,2,1,5,hiragana3.xlsx,hiragana31.xlsx,6,0,180,24,1,179,q,T,m,,,m,,,,,,,,,,,,,,,,,,,,
,,,,,,,,,,,,,,,,,,2019-05-23_20h20.01.183,Probabilistic Learning,3.1.0,60,,,,,m,0,0.497,1,0,6,2,1,5,hiragana3.xlsx,hiragana31.xlsx,6,0,180,18,1,179,e,f,c,,m,,,,,,,,,,,,,,,,,,,,,
,,,,,,,,,,,,,,,,,,2019-05-23_20h20.01.183,Probabilistic Learning,3.1.0,60,,,,,m,1,0.347,1,0,6,2,1,5,hiragana3.xlsx,hiragana31.xlsx,6,0,180,25,1,179,q,T,m,,,m,,,,,,,,,,,,,,,,,,,,
,,,,,,,,,,,,,,,,,,2019-05-23_20h20.01.183,Probabilistic Learning,3.1.0,60,,,,,m,0,0.362,1,0,6,2,1,5,hiragana3.xlsx,hiragana31.xlsx,6,0,180,28,1,179,q,T,c,,,m,,,,,,,,,,,,,,,,,,,,
,,,,,,,,,,,,,,,,,,2019-05-23_20h20.01.183,Probabilistic Learning,3.1.0,60,,,,,c,1,0.53,1,0,6,2,1,5,hiragana3.xlsx,hiragana31.xlsx,6,0,180,11,1,179,f,e,c,,c,,,,,,,,,,,,,,,,,,,,,
,,,,,,,,,,,,,,,,,,2019-05-23_20h20.01.183,Probabilistic Learning,3.1.0,60,,,,,m,0,0.381,1,0,6,2,1,5,hiragana3.xlsx,hiragana31.xlsx,6,0,180,17,1,179,e,f,c,,m,,,,,,,,,,,,,,,,,,,,,
,,,,,,,,,,,,,,,,,,2019-05-23_20h20.01.183,Probabilistic Learning,3.1.0,60,,,,,m,1,0.364,1,0,6,2,1,5,hiragana3.xlsx,hiragana31.xlsx,6,0,180,16,1,179,e,f,m,,m,,,,,,,,,,,,,,,,,,,,,
,,,,,,,,,,,,,,,,,,2019-05-23_20h20.01.183,Probabilistic Learning,3.1.0,60,,,,,c,1,0.38,1,0,6,2,1,5,hiragana3.xlsx,hiragana31.xlsx,6,0,180,21,1,179,T,q,c,,,c,,,,,,,,,,,,,,,,,,,,
,,,,,,,,,,,,,,,,,,2019-05-23_20h20.01.183,Probabilistic Learning,3.1.0,60,,,,,c,1,0.381,1,0,6,2,1,5,hiragana3.xlsx,hiragana31.xlsx,6,0,180,10,1,179,f,e,c,,c,,,,,,,,,,,,,,,,,,,,,
,,,,,,,,,,,,,,,,,,2019-05-23_20h20.01.183,Probabilistic Learning,3.1.0,60,,,,,c,0,0.397,1,0,6,2,1,5,hiragana3.xlsx,hiragana31.xlsx,6,0,180,19,1,179,f,e,m,,c,,,,,,,,,,,,,,,,,,,,,
,,,,,,,,,,,,,,,,,,2019-05-23_20h20.01.183,Probabilistic Learning,3.1.0,60,,,,,m,1,0.38,1,0,6,2,1,5,hiragana3.xlsx,hiragana31.xlsx,6,0,180,8,1,179,P,t,m,c,,,,,,,,,,,,,,,,,,,,,,
,,,,,,,,,,,,,,,,,,2019-05-23_20h20.01.183,Probabilistic Learning,3.1.0,60,,,,,c,1,0.33,1,0,6,2,1,5,hiragana3.xlsx,hiragana31.xlsx,6,0,180,2,1,179,P,t,c,c,,,,,,,,,,,,,,,,,,,,,,
,,,,,,,,,,,,,,,,,,2019-05-23_20h20.01.183,Probabilistic Learning,3.1.0,60,,,,,c,1,0.412,1,0,6,2,1,5,hiragana3.xlsx,hiragana31.xlsx,6,0,180,22,1,179,T,q,c,,,c,,,,,,,,,,,,,,,,,,,,
,,,,,,,,,,,,,,,,,,2019-05-23_20h20.01.183,Probabilistic Learning,3.1.0,60,,,,,c,0,0.365,1,0,6,2,1,5,hiragana3.xlsx,hiragana31.xlsx,6,0,180,27,1,179,T,q,m,,,c,,,,,,,,,,,,,,,,,,,,
,,,,,,,,,,,,,,,,,,2019-05-23_20h20.01.183,Probabilistic Learning,3.1.0,60,,,,,c,1,0.345,1,0,6,2,1,5,hiragana3.xlsx,hiragana31.xlsx,6,0,180,1,1,179,P,t,c,c,,,,,,,,,,,,,,,,,,,,,,
,,,,,,,,,,,,,,,,,,2019-05-23_20h20.01.183,Probabilistic Learning,3.1.0,60,,,,,c,0,0.312,1,0,6,2,1,5,hiragana3.xlsx,hiragana31.xlsx,6,0,180,4,1,179,t,P,m,m,,,,,,,,,,,,,,,,,,,,,,
,,,,,,,,,,,,,,,,,,2019-05-23_20h20.01.183,Probabilistic Learning,3.1.0,60,,,,,m,1,0.364,1,0,6,2,1,5,hiragana3.xlsx,hiragana31.xlsx,6,0,180,15,1,179,e,f,m,,m,,,,,,,,,,,,,,,,,,,,,
,,,,,,,,,,,,,,,,,,2019-05-23_20h20.01.183,Probabilistic Learning,3.1.0,60,,,,,c,1,0.497,1,0,6,2,1,5,hiragana3.xlsx,hiragana31.xlsx,6,0,180,0,1,179,P,t,c,c,,,,,,,,,,,,,,,,,,,,,,
,,,,,,,,,,,,,,,,,,2019-05-23_20h20.01.183,Probabilistic Learning,3.1.0,60,,,,,m,1,0.33,1,0,6,2,1,5,hiragana3.xlsx,hiragana31.xlsx,6,0,180,23,1,179,q,T,m,,,m,,,,,,,,,,,,,,,,,,,,
,,,,,,,,,,,,,,,,,,2019-05-23_20h20.01.183,Probabilistic Learning,3.1.0,60,,,,,c,0,0.345,1,0,6,2,1,5,hiragana3.xlsx,hiragana31.xlsx,6,0,180,26,1,179,T,q,m,,,c,,,,,,,,,,,,,,,,,,,,
,,,,,,,,,,,,,,,,,,2019-05-23_20h20.01.183,Probabilistic Learning,3.1.0,60,,,,,c,1,0.314,1,0,6,2,1,5,hiragana3.xlsx,hiragana31.xlsx,6,0,180,20,1,179,T,q,c,,,c,,,,,,,,,,,,,,,,,,,,
,,,,,,,,,,,,,,,,,,2019-05-23_20h20.01.183,Probabilistic Learning,3.1.0,60,,,,,c,1,0.431,1,0,6,2,1,5,hiragana3.xlsx,hiragana31.xlsx,6,0,180,12,1,179,f,e,c,,c,,,,,,,,,,,,,,,,,,,,,
,,,,,,,,,,,,,,,,,,2019-05-23_20h20.01.183,Probabilistic Learning,3.1.0,60,,,,,c,0,0.313,1,0,6,2,1,5,hiragana3.xlsx,hiragana31.xlsx,6,0,180,7,1,179,t,P,m,m,,,,,,,,,,,,,,,,,,,,,,
,,,,,,,,,,,,,,,,,,2019-05-23_20h20.01.183,Probabilistic Learning,3.1.0,60,,,,,c,1,0.38,1,0,6,2,1,5,hiragana3.xlsx,hiragana31.xlsx,6,0,180,21,1,179,T,q,c,,,c,,,,,,,,,,,,,,,,,,,,
,,,,,,,,,,,,,,,,,,2019-05-23_20h20.01.183,Probabilistic Learning,3.1.0,60,,,,,m,1,0.58,1,0,6,2,1,5,hiragana3.xlsx,hiragana31.xlsx,6,0,180,8,1,179,P,t,m,c,,,,,,,,,,,,,,,,,,,,,,
,,,,,,,,,,,,,,,,,,2019-05-23_20h20.01.183,Probabilistic Learning,3.1.0,60,,,,,m,0,0.434,1,0,6,2,1,5,hiragana3.xlsx,hiragana31.xlsx,6,0,180,22,1,179,T,q,c,,,c,,,,,,,,,,,,,,,,,,,,
,,,,,,,,,,,,,,,,,,2019-05-23_20h20.01.183,Probabilistic Learning,3.1.0,60,,,,,c,0,0.43,1,0,6,2,1,5,hiragana3.xlsx,hiragana31.xlsx,6,0,180,4,1,179,t,P,m,m,,,,,,,,,,,,,,,,,,,,,,
,,,,,,,,,,,,,,,,,,2019-05-23_20h20.01.183,Probabilistic Learning,3.1.0,60,,,,,m,1,0.38,1,0,6,2,1,5,hiragana3.xlsx,hiragana31.xlsx,6,0,180,7,1,179,t,P,m,m,,,,,,,,,,,,,,,,,,,,,,
,,,,,,,,,,,,,,,,,,2019-05-23_20h20.01.183,Probabilistic Learning,3.1.0,60,,,,,c,1,0.414,1,0,6,2,1,5,hiragana3.xlsx,hiragana31.xlsx,6,0,180,1,1,179,P,t,c,c,,,,,,,,,,,,,,,,,,,,,,
,,,,,,,,,,,,,,,,,,2019-05-23_20h20.01.183,Probabilistic Learning,3.1.0,60,,,,,c,1,0.464,1,0,6,2,1,5,hiragana3.xlsx,hiragana31.xlsx,6,0,180,13,1,179,f,e,c,,c,,,,,,,,,,,,,,,,,,,,,
,,,,,,,,,,,,,,,,,,2019-05-23_20h20.01.183,Probabilistic Learning,3.1.0,60,,,,,m,0,0.412,1,0,6,2,1,5,hiragana3.xlsx,hiragana31.xlsx,6,0,180,17,1,179,e,f,c,,m,,,,,,,,,,,,,,,,,,,,,
,,,,,,,,,,,,,,,,,,2019-05-23_20h20.01.183,Probabilistic Learning,3.1.0,60,,,,,c,1,0.414,1,0,6,2,1,5,hiragana3.xlsx,hiragana31.xlsx,6,0,180,12,1,179,f,e,c,,c,,,,,,,,,,,,,,,,,,,,,
,,,,,,,,,,,,,,,,,,2019-05-23_20h20.01.183,Probabilistic Learning,3.1.0,60,,,,,m,1,0.414,1,0,6,2,1,5,hiragana3.xlsx,hiragana31.xlsx,6,0,180,23,1,179,q,T,m,,,m,,,,,,,,,,,,,,,,,,,,
,,,,,,,,,,,,,,,,,,2019-05-23_20h20.01.183,Probabilistic Learning,3.1.0,60,,,,,m,1,0.413,1,0,6,2,1,5,hiragana3.xlsx,hiragana31.xlsx,6,0,180,14,1,179,e,f,m,,m,,,,,,,,,,,,,,,,,,,,,
,,,,,,,,,,,,,,,,,,2019-05-23_20h20.01.183,Probabilistic Learning,3.1.0,60,,,,,c,1,0.463,1,0,6,2,1,5,hiragana3.xlsx,hiragana31.xlsx,6,0,180,2,1,179,P,t,c,c,,,,,,,,,,,,,,,,,,,,,,
,,,,,,,,,,,,,,,,,,2019-05-23_20h20.01.183,Probabilistic Learning,3.1.0,60,,,,,c,1,0.462,1,0,6,2,1,5,hiragana3.xlsx,hiragana31.xlsx,6,0,180,11,1,179,f,e,c,,c,,,,,,,,,,,,,,,,,,,,,
,,,,,,,,,,,,,,,,,,2019-05-23_20h20.01.183,Probabilistic Learning,3.1.0,60,,,,,m,0,0.331,1,0,6,2,1,5,hiragana3.xlsx,hiragana31.xlsx,6,0,180,18,1,179,e,f,c,,m,,,,,,,,,,,,,,,,,,,,,
,,,,,,,,,,,,,,,,,,2019-05-23_20h20.01.183,Probabilistic Learning,3.1.0,60,,,,,c,1,0.412,1,0,6,2,1,5,hiragana3.xlsx,hiragana31.xlsx,6,0,180,20,1,179,T,q,c,,,c,,,,,,,,,,,,,,,,,,,,
,,,,,,,,,,,,,,,,,,2019-05-23_20h20.01.183,Probabilistic Learning,3.1.0,60,,,,,m,0,0.347,1,0,6,2,1,5,hiragana3.xlsx,hiragana31.xlsx,6,0,180,28,1,179,q,T,c,,,m,,,,,,,,,,,,,,,,,,,,
,,,,,,,,,,,,,,,,,,2019-05-23_20h20.01.183,Probabilistic Learning,3.1.0,60,,,,,m,1,0.363,1,0,6,2,1,5,hiragana3.xlsx,hiragana31.xlsx,6,0,180,25,1,179,q,T,m,,,m,,,,,,,,,,,,,,,,,,,,
,,,,,,,,,,,,,,,,,,2019-05-23_20h20.01.183,Probabilistic Learning,3.1.0,60,,,,,m,1,0.545,1,0,6,2,1,5,hiragana3.xlsx,hiragana31.xlsx,6,0,180,5,1,179,t,P,m,m,,,,,,,,,,,,,,,,,,,,,,
,,,,,,,,,,,,,,,,,,2019-05-23_20h20.01.183,Probabilistic Learning,3.1.0,60,,,,,c,0,0.38,1,0,6,2,1,5,hiragana3.xlsx,hiragana31.xlsx,6,0,180,27,1,179,T,q,m,,,c,,,,,,,,,,,,,,,,,,,,
,,,,,,,,,,,,,,,,,,2019-05-23_20h20.01.183,Probabilistic Learning,3.1.0,60,,,,,m,1,0.464,1,0,6,2,1,5,hiragana3.xlsx,hiragana31.xlsx,6,0,180,6,1,179,t,P,m,m,,,,,,,,,,,,,,,,,,,,,,
,,,,,,,,,,,,,,,,,,2019-05-23_20h20.01.183,Probabilistic Learning,3.1.0,60,,,,,c,1,0.431,1,0,6,2,1,5,hiragana3.xlsx,hiragana31.xlsx,6,0,180,3,1,179,P,t,c,c,,,,,,,,,,,,,,,,,,,,,,
,,,,,,,,,,,,,,,,,,2019-05-23_20h20.01.183,Probabilistic Learning,3.1.0,60,,,,,c,0,0.346,1,0,6,2,1,5,hiragana3.xlsx,hiragana31.xlsx,6,0,180,26,1,179,T,q,m,,,c,,,,,,,,,,,,,,,,,,,,
,,,,,,,,,,,,,,,,,,2019-05-23_20h20.01.183,Probabilistic Learning,3.1.0,60,,,,,c,0,0.48,1,0,6,2,1,5,hiragana3.xlsx,hiragana31.xlsx,6,0,180,19,1,179,f,e,m,,c,,,,,,,,,,,,,,,,,,,,,
,,,,,,,,,,,,,,,,,,2019-05-23_20h20.01.183,Probabilistic Learning,3.1.0,60,,,,,c,0,0.48,1,0,6,2,1,5,hiragana3.xlsx,hiragana31.xlsx,6,0,180,15,1,179,e,f,m,,m,,,,,,,,,,,,,,,,,,,,,
,,,,,,,,,,,,,,,,,,2019-05-23_20h20.01.183,Probabilistic Learning,3.1.0,60,,,,,m,0,0.481,1,0,6,2,1,5,hiragana3.xlsx,hiragana31.xlsx,6,0,180,9,1,179,t,P,c,m,,,,,,,,,,,,,,,,,,,,,,
,,,,,,,,,,,,,,,,,,2019-05-23_20h20.01.183,Probabilistic Learning,3.1.0,60,,,,,c,1,0.395,1,0,6,2,1,5,hiragana3.xlsx,hiragana31.xlsx,6,0,180,0,1,179,P,t,c,c,,,,,,,,,,,,,,,,,,,,,,
,,,,,,,,,,,,,,,,,,2019-05-23_20h20.01.183,Probabilistic Learning,3.1.0,60,,,,,m,1,0.348,1,0,6,2,1,5,hiragana3.xlsx,hiragana31.xlsx,6,0,180,24,1,179,q,T,m,,,m,,,,,,,,,,,,,,,,,,,,
,,,,,,,,,,,,,,,,,,2019-05-23_20h20.01.183,Probabilistic Learning,3.1.0,60,,,,,m,0,0.412,1,0,6,2,1,5,hiragana3.xlsx,hiragana31.xlsx,6,0,180,29,1,179,q,T,c,,,m,,,,,,,,,,,,,,,,,,,,
,,,,,,,,,,,,,,,,,,2019-05-23_20h20.01.183,Probabilistic Learning,3.1.0,60,,,,,c,1,0.446,1,0,6,2,1,5,hiragana3.xlsx,hiragana31.xlsx,6,0,180,10,1,179,f,e,c,,c,,,,,,,,,,,,,,,,,,,,,
,,,,,,,,,,,,,,,,,,2019-05-23_20h20.01.183,Probabilistic Learning,3.1.0,60,,,,,m,1,0.464,1,0,6,2,1,5,hiragana3.xlsx,hiragana31.xlsx,,,,,,,,,,,,,space,1.331,space,0.68,m,0.447,2,0,92,18,1,91,P,q,A,F,c,,,
,,,,,,,,,,,,,,,,,,2019-05-23_20h20.01.183,Probabilistic Learning,3.1.0,60,,,,,,,,1,0,6,2,1,5,hiragana3.xlsx,hiragana31.xlsx,,,,,,,,,,,,,,,,,m,0.13,2,0,92,37,1,91,q,t,F,B,,c,,
,,,,,,,,,,,,,,,,,,2019-05-23_20h20.01.183,Probabilistic Learning,3.1.0,60,,,,,,,,1,0,6,2,1,5,hiragana3.xlsx,hiragana31.xlsx,,,,,,,,,,,,,,,,,m,0.014,2,0,92,26,1,91,t,e,B,D,,m,,
,,,,,,,,,,,,,,,,,,2019-05-23_20h20.01.183,Probabilistic Learning,3.1.0,60,,,,,,,,1,0,6,2,1,5,hiragana3.xlsx,hiragana31.xlsx,,,,,,,,,,,,,,,,,m,0.012,2,0,92,23,1,91,t,f,B,C,,m,,
,,,,,,,,,,,,,,,,,,2019-05-23_20h20.01.183,Probabilistic Learning,3.1.0,60,,,,,,,,1,0,6,2,1,5,hiragana3.xlsx,hiragana31.xlsx,,,,,,,,,,,,,,,,,m,0.03,2,0,92,17,1,91,T,P,E,A,m,,,
,,,,,,,,,,,,,,,,,,2019-05-23_20h20.01.183,Probabilistic Learning,3.1.0,60,,,,,,,,1,0,6,2,1,5,hiragana3.xlsx,hiragana31.xlsx,,,,,,,,,,,,,,,,,m,0.114,2,0,92,28,1,91,e,t,D,B,,c,,
,,,,,,,,,,,,,,,,,,2019-05-23_20h20.01.183,Probabilistic Learning,3.1.0,60,,,,,,,,1,0,6,2,1,5,hiragana3.xlsx,hiragana31.xlsx,,,,,,,,,,,,,,,,,m,0.079,2,0,92,12,1,91,e,P,D,A,m,,,
,,,,,,,,,,,,,,,,,,2019-05-23_20h20.01.183,Probabilistic Learning,3.1.0,60,,,,,,,,1,0,6,2,1,5,hiragana3.xlsx,hiragana31.xlsx,,,,,,,,,,,,,,,,,m,0.064,2,0,92,25,1,91,f,t,C,B,,c,,
,,,,,,,,,,,,,,,,,,2019-05-23_20h20.01.183,Probabilistic Learning,3.1.0,60,,,,,,,,1,0,6,2,1,5,hiragana3.xlsx,hiragana31.xlsx,,,,,,,,,,,,,,,,,m,0.031,2,0,92,8,1,91,f,P,C,A,m,,,
,,,,,,,,,,,,,,,,,,2019-05-23_20h20.01.183,Probabilistic Learning,3.1.0,60,,,,,,,,1,0,6,2,1,5,hiragana3.xlsx,hiragana31.xlsx,,,,,,,,,,,,,,,,,m,0.196,2,0,92,43,1,91,T,e,e,d,,,,
,,,,,,,,,,,,,,,,,,2019-05-23_20h20.01.183,Probabilistic Learning,3.1.0,60,,,,,,,,1,0,6,2,1,5,hiragana3.xlsx,hiragana31.xlsx,,,,,,,,,,,,,,,,,m,0.047,2,0,92,45,1,91,q,e,f,d,,,,
,,,,,,,,,,,,,,,,,,2019-05-23_20h20.01.183,Probabilistic Learning,3.1.0,60,,,,,,,,1,0,6,2,1,5,hiragana3.xlsx,hiragana31.xlsx,,,,,,,,,,,,,,,,,m,0.18,2,0,92,30,1,91,t,T,B,E,,m,,
,,,,,,,,,,,,,,,,,,2019-05-23_20h20.01.183,Probabilistic Learning,3.1.0,60,,,,,,,,1,0,6,2,1,5,hiragana3.xlsx,hiragana31.xlsx,,,,,,,,,,,,,,,,,m,0.08,2,0,92,5,1,91,q,T,F,E,,,,
,,,,,,,,,,,,,,,,,,2019-05-23_20h20.01.183,Probabilistic Learning,3.1.0,60,,,,,,,,1,0,6,2,1,5,hiragana3.xlsx,hiragana31.xlsx,,,,,,,,,,,,,,,,,m,0.028,2,0,92,27,1,91,t,e,B,D,,m,,
,,,,,,,,,,,,,,,,,,2019-05-23_20h20.01.183,Probabilistic Learning,3.1.0,60,,,,,,,,1,0,6,2,1,5,hiragana3.xlsx,hiragana31.xlsx,,,,,,,,,,,,,,,,,m,0.031,2,0,92,44,1,91,e,q,d,f,,,,
,,,,,,,,,,,,,,,,,,2019-05-23_20h20.01.183,Probabilistic Learning,3.1.0,60,,,,,,,,1,0,6,2,1,5,hiragana3.xlsx,hiragana31.xlsx,,,,,,,,,,,,,,,,,m,0.212,2,0,92,29,1,91,e,t,D,B,,c,,
,,,,,,,,,,,,,,,,,,2019-05-23_20h20.01.183,Probabilistic Learning,3.1.0,60,,,,,,,,1,0,6,2,1,5,hiragana3.xlsx,hiragana31.xlsx,,,,,,,,,,,,,,,,,m,0.213,2,0,92,40,1,91,f,q,c,f,,,,
,,,,,,,,,,,,,,,,,,2019-05-23_20h20.01.183,Probabilistic Learning,3.1.0,60,,,,,,,,1,0,6,2,1,5,hiragana3.xlsx,hiragana31.xlsx,,,,,,,,,,,,,,,,,m,0.214,2,0,92,15,1,91,P,T,A,E,c,,,
,,,,,,,,,,,,,,,,,,2019-05-23_20h20.01.183,Probabilistic Learning,3.1.0,60,,,,,,,,1,0,6,2,1,5,hiragana3.xlsx,hiragana31.xlsx,,,,,,,,,,,,,,,,,m,0.012,2,0,92,24,1,91,f,t,C,B,,c,,
,,,,,,,,,,,,,,,,,,2019-05-23_20h20.01.183,Probabilistic Learning,3.1.0,60,,,,,,,,1,0,6,2,1,5,hiragana3.xlsx,hiragana31.xlsx,,,,,,,,,,,,,,,,,m,0.131,2,0,92,41,1,91,q,f,f,c,,,,
,,,,,,,,,,,,,,,,,,2019-05-23_20h20.01.183,Probabilistic Learning,3.1.0,60,,,,,,,,1,0,6,2,1,5,hiragana3.xlsx,hiragana31.xlsx,,,,,,,,,,,,,,,,,m,0.197,2,0,92,16,1,91,T,P,E,A,m,,,
,,,,,,,,,,,,,,,,,,2019-05-23_20h20.01.183,Probabilistic Learning,3.1.0,60,,,,,,,,1,0,6,2,1,5,hiragana3.xlsx,hiragana31.xlsx,,,,,,,,,,,,,,,,,m,0.114,2,0,92,35,1,91,t,q,B,F,,m,,
,,,,,,,,,,,,,,,,,,2019-05-23_20h20.01.183,Probabilistic Learning,3.1.0,60,,,,,,,,1,0,6,2,1,5,hiragana3.xlsx,hiragana31.xlsx,,,,,,,,,,,,,,,,,m,0.063,2,0,92,10,1,91,P,e,A,D,c,,,
,,,,,,,,,,,,,,,,,,2019-05-23_20h20.01.183,Probabilistic Learning,3.1.0,60,,,,,,,,1,0,6,2,1,5,hiragana3.xlsx,hiragana31.xlsx,,,,,,,,,,,,,,,,,m,0.129,2,0,92,3,1,91,e,f,D,C,,,,
,,,,,,,,,,,,,,,,,,2019-05-23_20h20.01.183,Probabilistic Learning,3.1.0,60,,,,,,,,1,0,6,2,1,5,hiragana3.xlsx,hiragana31.xlsx,,,,,,,,,,,,,,,,,m,0.079,2,0,92,32,1,91,T,t,E,B,,c,,
,,,,,,,,,,,,,,,,,,2019-05-23_20h20.01.183,Probabilistic Learning,3.1.0,60,,,,,,,,1,0,6,2,1,5,hiragana3.xlsx,hiragana31.xlsx,,,,,,,,,,,,,,,,,m,0.229,2,0,92,11,1,91,P,e,A,D,c,,,
,,,,,,,,,,,,,,,,,,2019-05-23_20h20.01.183,Probabilistic Learning,3.1.0,60,,,,,,,,1,0,6,2,1,5,hiragana3.xlsx,hiragana31.xlsx,,,,,,,,,,,,,,,,,m,0.162,2,0,92,22,1,91,t,f,B,C,,m,,
,,,,,,,,,,,,,,,,,,2019-05-23_20h20.01.183,Probabilistic Learning,3.1.0,60,,,,,,,,1,0,6,2,1,5,hiragana3.xlsx,hiragana31.xlsx,,,,,,,,,,,,,,,,,m,0.112,2,0,92,34,1,91,t,q,B,F,,m,,
,,,,,,,,,,,,,,,,,,2019-05-23_20h20.01.183,Probabilistic Learning,3.1.0,60,,,,,,,,1,0,6,2,1,5,hiragana3.xlsx,hiragana31.xlsx,,,,,,,,,,,,,,,,,m,0.197,2,0,92,14,1,91,P,T,A,E,c,,,
,,,,,,,,,,,,,,,,,,2019-05-23_20h20.01.183,Probabilistic Learning,3.1.0,60,,,,,,,,1,0,6,2,1,5,hiragana3.xlsx,hiragana31.xlsx,,,,,,,,,,,,,,,,,m,0.045,2,0,92,31,1,91,t,T,B,E,,m,,
,,,,,,,,,,,,,,,,,,2019-05-23_20h20.01.183,Probabilistic Learning,3.1.0,60,,,,,,,,1,0,6,2,1,5,hiragana3.xlsx,hiragana31.xlsx,,,,,,,,,,,,,,,,,m,0.063,2,0,92,38,1,91,f,T,C,E,,,,
,,,,,,,,,,,,,,,,,,2019-05-23_20h20.01.183,Probabilistic Learning,3.1.0,60,,,,,,,,1,0,6,2,1,5,hiragana3.xlsx,hiragana31.xlsx,,,,,,,,,,,,,,,,,m,0.111,2,0,92,21,1,91,q,P,F,A,m,,,
,,,,,,,,,,,,,,,,,,2019-05-23_20h20.01.183,Probabilistic Learning,3.1.0,60,,,,,,,,1,0,6,2,1,5,hiragana3.xlsx,hiragana31.xlsx,,,,,,,,,,,,,,,,,m,0.03,2,0,92,1,1,91,t,P,B,A,,,,
,,,,,,,,,,,,,,,,,,2019-05-23_20h20.01.183,Probabilistic Learning,3.1.0,60,,,,,,,,1,0,6,2,1,5,hiragana3.xlsx,hiragana31.xlsx,,,,,,,,,,,,,,,,,m,0.113,2,0,92,13,1,91,e,P,D,A,m,,,
,,,,,,,,,,,,,,,,,,2019-05-23_20h20.01.183,Probabilistic Learning,3.1.0,60,,,,,,,,1,0,6,2,1,5,hiragana3.xlsx,hiragana31.xlsx,,,,,,,,,,,,,,,,,m,0.114,2,0,92,0,1,91,P,t,A,B,,,,
,,,,,,,,,,,,,,,,,,2019-05-23_20h20.01.183,Probabilistic Learning,3.1.0,60,,,,,,,,1,0,6,2,1,5,hiragana3.xlsx,hiragana31.xlsx,,,,,,,,,,,,,,,,,m,0.179,2,0,92,20,1,91,q,P,F,A,m,,,
,,,,,,,,,,,,,,,,,,2019-05-23_20h20.01.183,Probabilistic Learning,3.1.0,60,,,,,,,,1,0,6,2,1,5,hiragana3.xlsx,hiragana31.xlsx,,,,,,,,,,,,,,,,,m,0.13,2,0,92,39,1,91,T,f,e,c,,,,
,,,,,,,,,,,,,,,,,,2019-05-23_20h20.01.183,Probabilistic Learning,3.1.0,60,,,,,,,,1,0,6,2,1,5,hiragana3.xlsx,hiragana31.xlsx,,,,,,,,,,,,,,,,,m,0.13,2,0,92,2,1,91,f,e,C,D,,,,
,,,,,,,,,,,,,,,,,,2019-05-23_20h20.01.183,Probabilistic Learning,3.1.0,60,,,,,,,,1,0,6,2,1,5,hiragana3.xlsx,hiragana31.xlsx,,,,,,,,,,,,,,,,,m,0.147,2,0,92,9,1,91,f,P,C,A,m,,,
,,,,,,,,,,,,,,,,,,2019-05-23_20h20.01.183,Probabilistic Learning,3.1.0,60,,,,,,,,1,0,6,2,1,5,hiragana3.xlsx,hiragana31.xlsx,,,,,,,,,,,,,,,,,m,0.079,2,0,92,6,1,91,P,f,A,C,c,,,
,,,,,,,,,,,,,,,,,,2019-05-23_20h20.01.183,Probabilistic Learning,3.1.0,60,,,,,,,,1,0,6,2,1,5,hiragana3.xlsx,hiragana31.xlsx,,,,,,,,,,,,,,,,,m,0.23,2,0,92,36,1,91,q,t,F,B,,c,,
,,,,,,,,,,,,,,,,,,2019-05-23_20h20.01.183,Probabilistic Learning,3.1.0,60,,,,,,,,1,0,6,2,1,5,hiragana3.xlsx,hiragana31.xlsx,,,,,,,,,,,,,,,,,m,0.028,2,0,92,33,1,91,T,t,E,B,,c,,
,,,,,,,,,,,,,,,,,,2019-05-23_20h20.01.183,Probabilistic Learning,3.1.0,60,,,,,,,,1,0,6,2,1,5,hiragana3.xlsx,hiragana31.xlsx,,,,,,,,,,,,,,,,,m,0.162,2,0,92,19,1,91,P,q,A,F,c,,,
,,,,,,,,,,,,,,,,,,2019-05-23_20h20.01.183,Probabilistic Learning,3.1.0,60,,,,,,,,1,0,6,2,1,5,hiragana3.xlsx,hiragana31.xlsx,,,,,,,,,,,,,,,,,m,0.128,2,0,92,42,1,91,e,T,d,e,,,,
,,,,,,,,,,,,,,,,,,2019-05-23_20h20.01.183,Probabilistic Learning,3.1.0,60,,,,,,,,1,0,6,2,1,5,hiragana3.xlsx,hiragana31.xlsx,,,,,,,,,,,,,,,,,m,0.197,2,0,92,7,1,91,P,f,A,C,c,,,
,,,,,,,,,,,,,,,,,,2019-05-23_20h20.01.183,Probabilistic Learning,3.1.0,60,,,,,,,,1,0,6,2,1,5,hiragana3.xlsx,hiragana31.xlsx,,,,,,,,,,,,,,,,,m,0.164,2,0,92,4,1,91,T,q,E,F,,,,
,,,,,,,,,,,,,,,,,,2019-05-23_20h20.01.183,Probabilistic Learning,3.1.0,60,,,,,,,,1,0,6,2,1,5,hiragana3.xlsx,hiragana31.xlsx,,,,,,,,,,,,,,,,,m,0.147,2,0,92,3,1,91,e,f,D,C,,,,
,,,,,,,,,,,,,,,,,,2019-05-23_20h20.01.183,Probabilistic Learning,3.1.0,60,,,,,,,,1,0,6,2,1,5,hiragana3.xlsx,hiragana31.xlsx,,,,,,,,,,,,,,,,,m,0.113,2,0,92,0,1,91,P,t,A,B,,,,
,,,,,,,,,,,,,,,,,,2019-05-23_20h20.01.183,Probabilistic Learning,3.1.0,60,,,,,,,,1,0,6,2,1,5,hiragana3.xlsx,hiragana31.xlsx,,,,,,,,,,,,,,,,,m,0.197,2,0,92,6,1,91,P,f,A,C,c,,,
,,,,,,,,,,,,,,,,,,2019-05-23_20h20.01.183,Probabilistic Learning,3.1.0,60,,,,,,,,1,0,6,2,1,5,hiragana3.xlsx,hiragana31.xlsx,,,,,,,,,,,,,,,,,m,0.013,2,0,92,16,1,91,T,P,E,A,m,,,
,,,,,,,,,,,,,,,,,,2019-05-23_20h20.01.183,Probabilistic Learning,3.1.0,60,,,,,,,,1,0,6,2,1,5,hiragana3.xlsx,hiragana31.xlsx,,,,,,,,,,,,,,,,,m,0.013,2,0,92,35,1,91,t,q,B,F,,m,,
,,,,,,,,,,,,,,,,,,2019-05-23_20h20.01.183,Probabilistic Learning,3.1.0,60,,,,,,,,1,0,6,2,1,5,hiragana3.xlsx,hiragana31.xlsx,,,,,,,,,,,,,,,,,m,0.145,2,0,92,5,1,91,q,T,F,E,,,,
,,,,,,,,,,,,,,,,,,2019-05-23_20h20.01.183,Probabilistic Learning,3.1.0,60,,,,,,,,1,0,6,2,1,5,hiragana3.xlsx,hiragana31.xlsx,,,,,,,,,,,,,,,,,m,0.113,2,0,92,29,1,91,e,t,D,B,,c,,
,,,,,,,,,,,,,,,,,,2019-05-23_20h20.01.183,Probabilistic Learning,3.1.0,60,,,,,,,,1,0,6,2,1,5,hiragana3.xlsx,hiragana31.xlsx,,,,,,,,,,,,,,,,,m,0.097,2,0,92,43,1,91,T,e,e,d,,,,
,,,,,,,,,,,,,,,,,,2019-05-23_20h20.01.183,Probabilistic Learning,3.1.0,60,,,,,,,,1,0,6,2,1,5,hiragana3.xlsx,hiragana31.xlsx,,,,,,,,,,,,,,,,,m,0.163,2,0,92,26,1,91,t,e,B,D,,m,,
,,,,,,,,,,,,,,,,,,2019-05-23_20h20.01.183,Probabilistic Learning,3.1.0,60,,,,,,,,1,0,6,2,1,5,hiragana3.xlsx,hiragana31.xlsx,,,,,,,,,,,,,,,,,m,0.013,2,0,92,8,1,91,f,P,C,A,m,,,
,,,,,,,,,,,,,,,,,,2019-05-23_20h20.01.183,Probabilistic Learning,3.1.0,60,,,,,,,,1,0,6,2,1,5,hiragana3.xlsx,hiragana31.xlsx,,,,,,,,,,,,,,,,,m,0.163,2,0,92,36,1,91,q,t,F,B,,c,,
,,,,,,,,,,,,,,,,,,2019-05-23_20h20.01.183,Probabilistic Learning,3.1.0,60,,,,,,,,1,0,6,2,1,5,hiragana3.xlsx,hiragana31.xlsx,,,,,,,,,,,,,,,,,m,0.096,2,0,92,32,1,91,T,t,E,B,,c,,
,,,,,,,,,,,,,,,,,,2019-05-23_20h20.01.183,Probabilistic Learning,3.1.0,60,,,,,,,,1,0,6,2,1,5,hiragana3.xlsx,hiragana31.xlsx,,,,,,,,,,,,,,,,,m,0.095,2,0,92,10,1,91,P,e,A,D,c,,,
,,,,,,,,,,,,,,,,,,2019-05-23_20h20.01.183,Probabilistic Learning,3.1.0,60,,,,,,,,1,0,6,2,1,5,hiragana3.xlsx,hiragana31.xlsx,,,,,,,,,,,,,,,,,m,0.146,2,0,92,27,1,91,t,e,B,D,,m,,
,,,,,,,,,,,,,,,,,,2019-05-23_20h20.01.183,Probabilistic Learning,3.1.0,60,,,,,,,,1,0,6,2,1,5,hiragana3.xlsx,hiragana31.xlsx,,,,,,,,,,,,,,,,,m,0.163,2,0,92,30,1,91,t,T,B,E,,m,,
,,,,,,,,,,,,,,,,,,2019-05-23_20h20.01.183,Probabilistic Learning,3.1.0,60,,,,,,,,1,0,6,2,1,5,hiragana3.xlsx,hiragana31.xlsx,,,,,,,,,,,,,,,,,m,0.013,2,0,92,37,1,91,q,t,F,B,,c,,
,,,,,,,,,,,,,,,,,,2019-05-23_20h20.01.183,Probabilistic Learning,3.1.0,60,,,,,,,,1,0,6,2,1,5,hiragana3.xlsx,hiragana31.xlsx,,,,,,,,,,,,,,,,,m,0.113,2,0,92,34,1,91,t,q,B,F,,m,,
,,,,,,,,,,,,,,,,,,2019-05-23_20h20.01.183,Probabilistic Learning,3.1.0,60,,,,,,,,1,0,6,2,1,5,hiragana3.xlsx,hiragana31.xlsx,,,,,,,,,,,,,,,,,m,0.18,2,0,92,31,1,91,t,T,B,E,,m,,
,,,,,,,,,,,,,,,,,,2019-05-23_20h20.01.183,Probabilistic Learning,3.1.0,60,,,,,,,,1,0,6,2,1,5,hiragana3.xlsx,hiragana31.xlsx,,,,,,,,,,,,,,,,,m,0.112,2,0,92,18,1,91,P,q,A,F,c,,,
,,,,,,,,,,,,,,,,,,2019-05-23_20h20.01.183,Probabilistic Learning,3.1.0,60,,,,,,,,1,0,6,2,1,5,hiragana3.xlsx,hiragana31.xlsx,,,,,,,,,,,,,,,,,m,0.314,2,0,92,13,1,91,e,P,D,A,m,,,
,,,,,,,,,,,,,,,,,,2019-05-23_20h20.01.183,Probabilistic Learning,3.1.0,60,,,,,,,,1,0,6,2,1,5,hiragana3.xlsx,hiragana31.xlsx,,,,,,,,,,,,,,,,,m,0.114,2,0,92,41,1,91,q,f,f,c,,,,
,,,,,,,,,,,,,,,,,,2019-05-23_20h20.01.183,Probabilistic Learning,3.1.0,60,,,,,,,,1,0,6,2,1,5,hiragana3.xlsx,hiragana31.xlsx,,,,,,,,,,,,,,,,,m,0.012,2,0,92,1,1,91,t,P,B,A,,,,
,,,,,,,,,,,,,,,,,,2019-05-23_20h20.01.183,Probabilistic Learning,3.1.0,60,,,,,,,,1,0,6,2,1,5,hiragana3.xlsx,hiragana31.xlsx,,,,,,,,,,,,,,,,,m,0.028,2,0,92,21,1,91,q,P,F,A,m,,,
,,,,,,,,,,,,,,,,,,2019-05-23_20h20.01.183,Probabilistic Learning,3.1.0,60,,,,,,,,1,0,6,2,1,5,hiragana3.xlsx,hiragana31.xlsx,,,,,,,,,,,,,,,,,m,0.147,2,0,92,4,1,91,T,q,E,F,,,,
,,,,,,,,,,,,,,,,,,2019-05-23_20h20.01.183,Probabilistic Learning,3.1.0,60,,,,,,,,1,0,6,2,1,5,hiragana3.xlsx,hiragana31.xlsx,,,,,,,,,,,,,,,,,m,0.063,2,0,92,45,1,91,q,e,f,d,,,,
,,,,,,,,,,,,,,,,,,2019-05-23_20h20.01.183,Probabilistic Learning,3.1.0,60,,,,,,,,1,0,6,2,1,5,hiragana3.xlsx,hiragana31.xlsx,,,,,,,,,,,,,,,,,m,0.196,2,0,92,15,1,91,P,T,A,E,c,,,
,,,,,,,,,,,,,,,,,,2019-05-23_20h20.01.183,Probabilistic Learning,3.1.0,60,,,,,,,,1,0,6,2,1,5,hiragana3.xlsx,hiragana31.xlsx,,,,,,,,,,,,,,,,,m,0.147,2,0,92,39,1,91,T,f,e,c,,,,
,,,,,,,,,,,,,,,,,,2019-05-23_20h20.01.183,Probabilistic Learning,3.1.0,60,,,,,,,,1,0,6,2,1,5,hiragana3.xlsx,hiragana31.xlsx,,,,,,,,,,,,,,,,,m,0.146,2,0,92,19,1,91,P,q,A,F,c,,,
,,,,,,,,,,,,,,,,,,2019-05-23_20h20.01.183,Probabilistic Learning,3.1.0,60,,,,,,,,1,0,6,2,1,5,hiragana3.xlsx,hiragana31.xlsx,,,,,,,,,,,,,,,,,m,0.114,2,0,92,9,1,91,f,P,C,A,m,,,
,,,,,,,,,,,,,,,,,,2019-05-23_20h20.01.183,Probabilistic Learning,3.1.0,60,,,,,,,,1,0,6,2,1,5,hiragana3.xlsx,hiragana31.xlsx,,,,,,,,,,,,,,,,,m,0.197,2,0,92,38,1,91,f,T,C,E,,,,
,,,,,,,,,,,,,,,,,,2019-05-23_20h20.01.183,Probabilistic Learning,3.1.0,60,,,,,,,,1,0,6,2,1,5,hiragana3.xlsx,hiragana31.xlsx,,,,,,,,,,,,,,,,,m,0.046,2,0,92,28,1,91,e,t,D,B,,c,,
,,,,,,,,,,,,,,,,,,2019-05-23_20h20.01.183,Probabilistic Learning,3.1.0,60,,,,,,,,1,0,6,2,1,5,hiragana3.xlsx,hiragana31.xlsx,,,,,,,,,,,,,,,,,m,0.247,2,0,92,20,1,91,q,P,F,A,m,,,
,,,,,,,,,,,,,,,,,,2019-05-23_20h20.01.183,Probabilistic Learning,3.1.0,60,,,,,,,,1,0,6,2,1,5,hiragana3.xlsx,hiragana31.xlsx,,,,,,,,,,,,,,,,,m,0.128,2,0,92,33,1,91,T,t,E,B,,c,,
,,,,,,,,,,,,,,,,,,2019-05-23_20h20.01.183,Probabilistic Learning,3.1.0,60,,,,,,,,1,0,6,2,1,5,hiragana3.xlsx,hiragana31.xlsx,,,,,,,,,,,,,,,,,m,0.164,2,0,92,44,1,91,e,q,d,f,,,,
,,,,,,,,,,,,,,,,,,2019-05-23_20h20.01.183,Probabilistic Learning,3.1.0,60,,,,,,,,1,0,6,2,1,5,hiragana3.xlsx,hiragana31.xlsx,,,,,,,,,,,,,,,,,m,0.13,2,0,92,22,1,91,t,f,B,C,,m,,
,,,,,,,,,,,,,,,,,,2019-05-23_20h20.01.183,Probabilistic Learning,3.1.0,60,,,,,,,,1,0,6,2,1,5,hiragana3.xlsx,hiragana31.xlsx,,,,,,,,,,,,,,,,,m,0.146,2,0,92,23,1,91,t,f,B,C,,m,,
,,,,,,,,,,,,,,,,,,2019-05-23_20h20.01.183,Probabilistic Learning,3.1.0,60,,,,,,,,1,0,6,2,1,5,hiragana3.xlsx,hiragana31.xlsx,,,,,,,,,,,,,,,,,m,0.18,2,0,92,11,1,91,P,e,A,D,c,,,
,,,,,,,,,,,,,,,,,,2019-05-23_20h20.01.183,Probabilistic Learning,3.1.0,60,,,,,,,,1,0,6,2,1,5,hiragana3.xlsx,hiragana31.xlsx,,,,,,,,,,,,,,,,,m,0.062,2,0,92,12,1,91,e,P,D,A,m,,,
,,,,,,,,,,,,,,,,,,2019-05-23_20h20.01.183,Probabilistic Learning,3.1.0,60,,,,,,,,1,0,6,2,1,5,hiragana3.xlsx,hiragana31.xlsx,,,,,,,,,,,,,,,,,m,0.065,2,0,92,40,1,91,f,q,c,f,,,,
,,,,,,,,,,,,,,,,,,2019-05-23_20h20.01.183,Probabilistic Learning,3.1.0,60,,,,,,,,1,0,6,2,1,5,hiragana3.xlsx,hiragana31.xlsx,,,,,,,,,,,,,,,,,m,0.061,2,0,92,24,1,91,f,t,C,B,,c,,
,,,,,,,,,,,,,,,,,,2019-05-23_20h20.01.183,Probabilistic Learning,3.1.0,60,,,,,,,,1,0,6,2,1,5,hiragana3.xlsx,hiragana31.xlsx,,,,,,,,,,,,,,,,,m,0.014,2,0,92,2,1,91,f,e,C,D,,,,
,,,,,,,,,,,,,,,,,,2019-05-23_20h20.01.183,Probabilistic Learning,3.1.0,60,,,,,,,,1,0,6,2,1,5,hiragana3.xlsx,hiragana31.xlsx,,,,,,,,,,,,,,,,,m,0.031,2,0,92,14,1,91,P,T,A,E,c,,,
,,,,,,,,,,,,,,,,,,2019-05-23_20h20.01.183,Probabilistic Learning,3.1.0,60,,,,,,,,1,0,6,2,1,5,hiragana3.xlsx,hiragana31.xlsx,,,,,,,,,,,,,,,,,m,0.18,2,0,92,7,1,91,P,f,A,C,c,,,
,,,,,,,,,,,,,,,,,,2019-05-23_20h20.01.183,Probabilistic Learning,3.1.0,60,,,,,,,,1,0,6,2,1,5,hiragana3.xlsx,hiragana31.xlsx,,,,,,,,,,,,,,,,,m,0.179,2,0,92,17,1,91,T,P,E,A,m,,,
,,,,,,,,,,,,,,,,,,2019-05-23_20h20.01.183,Probabilistic Learning,3.1.0,60,,,,,,,,1,0,6,2,1,5,hiragana3.xlsx,hiragana31.xlsx,,,,,,,,,,,,,,,,,m,0.147,2,0,92,42,1,91,e,T,d,e,,,,
,,,,,,,,,,,,,,,,,,2019-05-23_20h20.01.183,Probabilistic Learning,3.1.0,60,,,,,,,,1,0,6,2,1,5,hiragana3.xlsx,hiragana31.xlsx,,,,,,,,,,,,,,,,,m,0.012,2,0,92,25,1,91,f,t,C,B,,c,,
,,,,,,,,,,,,,,,,,,2019-05-23_20h20.01.183,Probabilistic Learning,3.1.0,60,,,,,,,,1,0,6,2,1,5,hiragana3.xlsx,hiragana31.xlsx,,,,,,,,,,,,,,,,,,,,,,,,,,,,,,,m,0.215
,,,,,,,,,,,,,,,,,,2019-05-23_20h20.01.183,Probabilistic Learning,3.1.0,60,,,space,1.497,m,1,0.443,1,0,6,4,1,5,hiragana5.xlsx,hiragana51.xlsx,6,0,180,24,1,179,S,j,m,,,m,,,,,,,,,,,,,,,,,,,,
,,,,,,,,,,,,,,,,,,2019-05-23_20h20.01.183,Probabilistic Learning,3.1.0,60,,,,,c,1,0.413,1,0,6,4,1,5,hiragana5.xlsx,hiragana51.xlsx,6,0,180,12,1,179,h,G,c,,c,,,,,,,,,,,,,,,,,,,,,
,,,,,,,,,,,,,,,,,,2019-05-23_20h20.01.183,Probabilistic Learning,3.1.0,60,,,,,m,1,0.348,1,0,6,4,1,5,hiragana5.xlsx,hiragana51.xlsx,6,0,180,23,1,179,S,j,m,,,m,,,,,,,,,,,,,,,,,,,,
,,,,,,,,,,,,,,,,,,2019-05-23_20h20.01.183,Probabilistic Learning,3.1.0,60,,,,,c,0,0.413,1,0,6,4,1,5,hiragana5.xlsx,hiragana51.xlsx,6,0,180,27,1,179,j,S,m,,,c,,,,,,,,,,,,,,,,,,,,
,,,,,,,,,,,,,,,,,,2019-05-23_20h20.01.183,Probabilistic Learning,3.1.0,60,,,,,c,0,0.446,1,0,6,4,1,5,hiragana5.xlsx,hiragana51.xlsx,6,0,180,26,1,179,j,S,m,,,c,,,,,,,,,,,,,,,,,,,,
,,,,,,,,,,,,,,,,,,2019-05-23_20h20.01.183,Probabilistic Learning,3.1.0,60,,,,,m,1,0.662,1,0,6,4,1,5,hiragana5.xlsx,hiragana51.xlsx,6,0,180,7,1,179,B,Q,m,m,,,,,,,,,,,,,,,,,,,,,,
,,,,,,,,,,,,,,,,,,2019-05-23_20h20.01.183,Probabilistic Learning,3.1.0,60,,,,,m,1,0.447,1,0,6,4,1,5,hiragana5.xlsx,hiragana51.xlsx,6,0,180,15,1,179,G,h,m,,m,,,,,,,,,,,,,,,,,,,,,
,,,,,,,,,,,,,,,,,,2019-05-23_20h20.01.183,Probabilistic Learning,3.1.0,60,,,,,m,1,0.363,1,0,6,4,1,5,hiragana5.xlsx,hiragana51.xlsx,6,0,180,14,1,179,G,h,m,,m,,,,,,,,,,,,,,,,,,,,,
,,,,,,,,,,,,,,,,,,2019-05-23_20h20.01.183,Probabilistic Learning,3.1.0,60,,,,,c,1,0.347,1,0,6,4,1,5,hiragana5.xlsx,hiragana51.xlsx,6,0,180,2,1,179,Q,B,c,c,,,,,,,,,,,,,,,,,,,,,,
,,,,,,,,,,,,,,,,,,2019-05-23_20h20.01.183,Probabilistic Learning,3.1.0,60,,,,,m,0,0.363,1,0,6,4,1,5,hiragana5.xlsx,hiragana51.xlsx,6,0,180,17,1,179,G,h,c,,m,,,,,,,,,,,,,,,,,,,,,
,,,,,,,,,,,,,,,,,,2019-05-23_20h20.01.183,Probabilistic Learning,3.1.0,60,,,,,c,1,0.412,1,0,6,4,1,5,hiragana5.xlsx,hiragana51.xlsx,6,0,180,21,1,179,j,S,c,,,c,,,,,,,,,,,,,,,,,,,,
,,,,,,,,,,,,,,,,,,2019-05-23_20h20.01.183,Probabilistic Learning,3.1.0,60,,,,,m,1,0.331,1,0,6,4,1,5,hiragana5.xlsx,hiragana51.xlsx,6,0,180,5,1,179,B,Q,m,m,,,,,,,,,,,,,,,,,,,,,,
,,,,,,,,,,,,,,,,,,2019-05-23_20h20.01.183,Probabilistic Learning,3.1.0,60,,,,,m,1,0.363,1,0,6,4,1,5,hiragana5.xlsx,hiragana51.xlsx,6,0,180,4,1,179,B,Q,m,m,,,,,,,,,,,,,,,,,,,,,,
,,,,,,,,,,,,,,,,,,2019-05-23_20h20.01.183,Probabilistic Learning,3.1.0,60,,,,,m,1,0.413,1,0,6,4,1,5,hiragana5.xlsx,hiragana51.xlsx,6,0,180,16,1,179,G,h,m,,m,,,,,,,,,,,,,,,,,,,,,
,,,,,,,,,,,,,,,,,,2019-05-23_20h20.01.183,Probabilistic Learning,3.1.0,60,,,,,m,0,0.414,1,0,6,4,1,5,hiragana5.xlsx,hiragana51.xlsx,6,0,180,29,1,179,S,j,c,,,m,,,,,,,,,,,,,,,,,,,,
,,,,,,,,,,,,,,,,,,2019-05-23_20h20.01.183,Probabilistic Learning,3.1.0,60,,,,,c,1,0.463,1,0,6,4,1,5,hiragana5.xlsx,hiragana51.xlsx,6,0,180,3,1,179,Q,B,c,c,,,,,,,,,,,,,,,,,,,,,,
,,,,,,,,,,,,,,,,,,2019-05-23_20h20.01.183,Probabilistic Learning,3.1.0,60,,,,,c,1,0.347,1,0,6,4,1,5,hiragana5.xlsx,hiragana51.xlsx,6,0,180,1,1,179,Q,B,c,c,,,,,,,,,,,,,,,,,,,,,,
,,,,,,,,,,,,,,,,,,2019-05-23_20h20.01.183,Probabilistic Learning,3.1.0,60,,,,,m,0,0.364,1,0,6,4,1,5,hiragana5.xlsx,hiragana51.xlsx,6,0,180,13,1,179,h,G,c,,c,,,,,,,,,,,,,,,,,,,,,
,,,,,,,,,,,,,,,,,,2019-05-23_20h20.01.183,Probabilistic Learning,3.1.0,60,,,,,c,0,0.379,1,0,6,4,1,5,hiragana5.xlsx,hiragana51.xlsx,6,0,180,19,1,179,h,G,m,,c,,,,,,,,,,,,,,,,,,,,,
,,,,,,,,,,,,,,,,,,2019-05-23_20h20.01.183,Probabilistic Learning,3.1.0,60,,,,,c,1,0.396,1,0,6,4,1,5,hiragana5.xlsx,hiragana51.xlsx,6,0,180,20,1,179,j,S,c,,,c,,,,,,,,,,,,,,,,,,,,
,,,,,,,,,,,,,,,,,,2019-05-23_20h20.01.183,Probabilistic Learning,3.1.0,60,,,,,m,1,0.463,1,0,6,4,1,5,hiragana5.xlsx,hiragana51.xlsx,6,0,180,6,1,179,B,Q,m,m,,,,,,,,,,,,,,,,,,,,,,
,,,,,,,,,,,,,,,,,,2019-05-23_20h20.01.183,Probabilistic Learning,3.1.0,60,,,,,m,0,0.446,1,0,6,4,1,5,hiragana5.xlsx,hiragana51.xlsx,6,0,180,18,1,179,G,h,c,,m,,,,,,,,,,,,,,,,,,,,,
,,,,,,,,,,,,,,,,,,2019-05-23_20h20.01.183,Probabilistic Learning,3.1.0,60,,,,,c,1,0.378,1,0,6,4,1,5,hiragana5.xlsx,hiragana51.xlsx,6,0,180,0,1,179,Q,B,c,c,,,,,,,,,,,,,,,,,,,,,,
,,,,,,,,,,,,,,,,,,2019-05-23_20h20.01.183,Probabilistic Learning,3.1.0,60,,,,,c,1,0.478,1,0,6,4,1,5,hiragana5.xlsx,hiragana51.xlsx,6,0,180,22,1,179,j,S,c,,,c,,,,,,,,,,,,,,,,,,,,
,,,,,,,,,,,,,,,,,,2019-05-23_20h20.01.183,Probabilistic Learning,3.1.0,60,,,,,c,0,0.362,1,0,6,4,1,5,hiragana5.xlsx,hiragana51.xlsx,6,0,180,8,1,179,Q,B,m,c,,,,,,,,,,,,,,,,,,,,,,
,,,,,,,,,,,,,,,,,,2019-05-23_20h20.01.183,Probabilistic Learning,3.1.0,60,,,,,m,1,0.396,1,0,6,4,1,5,hiragana5.xlsx,hiragana51.xlsx,6,0,180,25,1,179,S,j,m,,,m,,,,,,,,,,,,,,,,,,,,
,,,,,,,,,,,,,,,,,,2019-05-23_20h20.01.183,Probabilistic Learning,3.1.0,60,,,,,m,0,0.397,1,0,6,4,1,5,hiragana5.xlsx,hiragana51.xlsx,6,0,180,9,1,179,B,Q,c,m,,,,,,,,,,,,,,,,,,,,,,
,,,,,,,,,,,,,,,,,,2019-05-23_20h20.01.183,Probabilistic Learning,3.1.0,60,,,,,c,1,0.379,1,0,6,4,1,5,hiragana5.xlsx,hiragana51.xlsx,6,0,180,11,1,179,h,G,c,,c,,,,,,,,,,,,,,,,,,,,,
,,,,,,,,,,,,,,,,,,2019-05-23_20h20.01.183,Probabilistic Learning,3.1.0,60,,,,,m,0,0.413,1,0,6,4,1,5,hiragana5.xlsx,hiragana51.xlsx,6,0,180,28,1,179,S,j,c,,,m,,,,,,,,,,,,,,,,,,,,
,,,,,,,,,,,,,,,,,,2019-05-23_20h20.01.183,Probabilistic Learning,3.1.0,60,,,,,c,1,0.379,1,0,6,4,1,5,hiragana5.xlsx,hiragana51.xlsx,6,0,180,10,1,179,h,G,c,,c,,,,,,,,,,,,,,,,,,,,,
,,,,,,,,,,,,,,,,,,2019-05-23_20h20.01.183,Probabilistic Learning,3.1.0,60,,,,,m,1,0.362,1,0,6,4,1,5,hiragana5.xlsx,hiragana51.xlsx,6,0,180,23,1,179,S,j,m,,,m,,,,,,,,,,,,,,,,,,,,
,,,,,,,,,,,,,,,,,,2019-05-23_20h20.01.183,Probabilistic Learning,3.1.0,60,,,,,m,1,0.397,1,0,6,4,1,5,hiragana5.xlsx,hiragana51.xlsx,6,0,180,7,1,179,B,Q,m,m,,,,,,,,,,,,,,,,,,,,,,
,,,,,,,,,,,,,,,,,,2019-05-23_20h20.01.183,Probabilistic Learning,3.1.0,60,,,,,m,0,0.346,1,0,6,4,1,5,hiragana5.xlsx,hiragana51.xlsx,6,0,180,29,1,179,S,j,c,,,m,,,,,,,,,,,,,,,,,,,,
,,,,,,,,,,,,,,,,,,2019-05-23_20h20.01.183,Probabilistic Learning,3.1.0,60,,,,,c,1,0.396,1,0,6,4,1,5,hiragana5.xlsx,hiragana51.xlsx,6,0,180,22,1,179,j,S,c,,,c,,,,,,,,,,,,,,,,,,,,
,,,,,,,,,,,,,,,,,,2019-05-23_20h20.01.183,Probabilistic Learning,3.1.0,60,,,,,c,1,0.313,1,0,6,4,1,5,hiragana5.xlsx,hiragana51.xlsx,6,0,180,10,1,179,h,G,c,,c,,,,,,,,,,,,,,,,,,,,,
,,,,,,,,,,,,,,,,,,2019-05-23_20h20.01.183,Probabilistic Learning,3.1.0,60,,,,,c,1,0.396,1,0,6,4,1,5,hiragana5.xlsx,hiragana51.xlsx,6,0,180,21,1,179,j,S,c,,,c,,,,,,,,,,,,,,,,,,,,
,,,,,,,,,,,,,,,,,,2019-05-23_20h20.01.183,Probabilistic Learning,3.1.0,60,,,,,m,1,0.448,1,0,6,4,1,5,hiragana5.xlsx,hiragana51.xlsx,6,0,180,5,1,179,B,Q,m,m,,,,,,,,,,,,,,,,,,,,,,
,,,,,,,,,,,,,,,,,,2019-05-23_20h20.01.183,Probabilistic Learning,3.1.0,60,,,,,m,1,0.414,1,0,6,4,1,5,hiragana5.xlsx,hiragana51.xlsx,6,0,180,24,1,179,S,j,m,,,m,,,,,,,,,,,,,,,,,,,,
,,,,,,,,,,,,,,,,,,2019-05-23_20h20.01.183,Probabilistic Learning,3.1.0,60,,,,,m,1,0.446,1,0,6,4,1,5,hiragana5.xlsx,hiragana51.xlsx,6,0,180,14,1,179,G,h,m,,m,,,,,,,,,,,,,,,,,,,,,
,,,,,,,,,,,,,,,,,,2019-05-23_20h20.01.183,Probabilistic Learning,3.1.0,60,,,,,c,1,0.378,1,0,6,4,1,5,hiragana5.xlsx,hiragana51.xlsx,6,0,180,11,1,179,h,G,c,,c,,,,,,,,,,,,,,,,,,,,,
,,,,,,,,,,,,,,,,,,2019-05-23_20h20.01.183,Probabilistic Learning,3.1.0,60,,,,,m,0,0.33,1,0,6,4,1,5,hiragana5.xlsx,hiragana51.xlsx,6,0,180,3,1,179,Q,B,c,c,,,,,,,,,,,,,,,,,,,,,,
,,,,,,,,,,,,,,,,,,2019-05-23_20h20.01.183,Probabilistic Learning,3.1.0,60,,,,,c,0,0.381,1,0,6,4,1,5,hiragana5.xlsx,hiragana51.xlsx,6,0,180,8,1,179,Q,B,m,c,,,,,,,,,,,,,,,,,,,,,,
,,,,,,,,,,,,,,,,,,2019-05-23_20h20.01.183,Probabilistic Learning,3.1.0,60,,,,,c,0,0.413,1,0,6,4,1,5,hiragana5.xlsx,hiragana51.xlsx,6,0,180,19,1,179,h,G,m,,c,,,,,,,,,,,,,,,,,,,,,
,,,,,,,,,,,,,,,,,,2019-05-23_20h20.01.183,Probabilistic Learning,3.1.0,60,,,,,m,0,0.447,1,0,6,4,1,5,hiragana5.xlsx,hiragana51.xlsx,6,0,180,9,1,179,B,Q,c,m,,,,,,,,,,,,,,,,,,,,,,
,,,,,,,,,,,,,,,,,,2019-05-23_20h20.01.183,Probabilistic Learning,3.1.0,60,,,,,c,1,0.347,1,0,6,4,1,5,hiragana5.xlsx,hiragana51.xlsx,6,0,180,13,1,179,h,G,c,,c,,,,,,,,,,,,,,,,,,,,,
,,,,,,,,,,,,,,,,,,2019-05-23_20h20.01.183,Probabilistic Learning,3.1.0,60,,,,,m,0,0.364,1,0,6,4,1,5,hiragana5.xlsx,hiragana51.xlsx,6,0,180,28,1,179,S,j,c,,,m,,,,,,,,,,,,,,,,,,,,
,,,,,,,,,,,,,,,,,,2019-05-23_20h20.01.183,Probabilistic Learning,3.1.0,60,,,,,m,1,0.463,1,0,6,4,1,5,hiragana5.xlsx,hiragana51.xlsx,6,0,180,4,1,179,B,Q,m,m,,,,,,,,,,,,,,,,,,,,,,
,,,,,,,,,,,,,,,,,,2019-05-23_20h20.01.183,Probabilistic Learning,3.1.0,60,,,,,c,1,0.414,1,0,6,4,1,5,hiragana5.xlsx,hiragana51.xlsx,6,0,180,12,1,179,h,G,c,,c,,,,,,,,,,,,,,,,,,,,,
,,,,,,,,,,,,,,,,,,2019-05-23_20h20.01.183,Probabilistic Learning,3.1.0,60,,,,,m,0,0.314,1,0,6,4,1,5,hiragana5.xlsx,hiragana51.xlsx,6,0,180,17,1,179,G,h,c,,m,,,,,,,,,,,,,,,,,,,,,
,,,,,,,,,,,,,,,,,,2019-05-23_20h20.01.183,Probabilistic Learning,3.1.0,60,,,,,c,1,0.344,1,0,6,4,1,5,hiragana5.xlsx,hiragana51.xlsx,6,0,180,0,1,179,Q,B,c,c,,,,,,,,,,,,,,,,,,,,,,
,,,,,,,,,,,,,,,,,,2019-05-23_20h20.01.183,Probabilistic Learning,3.1.0,60,,,,,m,0,0.38,1,0,6,4,1,5,hiragana5.xlsx,hiragana51.xlsx,6,0,180,20,1,179,j,S,c,,,c,,,,,,,,,,,,,,,,,,,,
,,,,,,,,,,,,,,,,,,2019-05-23_20h20.01.183,Probabilistic Learning,3.1.0,60,,,,,m,1,0.376,1,0,6,4,1,5,hiragana5.xlsx,hiragana51.xlsx,6,0,180,6,1,179,B,Q,m,m,,,,,,,,,,,,,,,,,,,,,,
,,,,,,,,,,,,,,,,,,2019-05-23_20h20.01.183,Probabilistic Learning,3.1.0,60,,,,,m,1,0.431,1,0,6,4,1,5,hiragana5.xlsx,hiragana51.xlsx,6,0,180,25,1,179,S,j,m,,,m,,,,,,,,,,,,,,,,,,,,
,,,,,,,,,,,,,,,,,,2019-05-23_20h20.01.183,Probabilistic Learning,3.1.0,60,,,,,m,0,0.464,1,0,6,4,1,5,hiragana5.xlsx,hiragana51.xlsx,6,0,180,18,1,179,G,h,c,,m,,,,,,,,,,,,,,,,,,,,,
,,,,,,,,,,,,,,,,,,2019-05-23_20h20.01.183,Probabilistic Learning,3.1.0,60,,,,,c,0,0.513,1,0,6,4,1,5,hiragana5.xlsx,hiragana51.xlsx,6,0,180,26,1,179,j,S,m,,,c,,,,,,,,,,,,,,,,,,,,
,,,,,,,,,,,,,,,,,,2019-05-23_20h20.01.183,Probabilistic Learning,3.1.0,60,,,,,m,1,0.529,1,0,6,4,1,5,hiragana5.xlsx,hiragana51.xlsx,6,0,180,16,1,179,G,h,m,,m,,,,,,,,,,,,,,,,,,,,,
,,,,,,,,,,,,,,,,,,2019-05-23_20h20.01.183,Probabilistic Learning,3.1.0,60,,,,,c,1,0.396,1,0,6,4,1,5,hiragana5.xlsx,hiragana51.xlsx,6,0,180,2,1,179,Q,B,c,c,,,,,,,,,,,,,,,,,,,,,,
,,,,,,,,,,,,,,,,,,2019-05-23_20h20.01.183,Probabilistic Learning,3.1.0,60,,,,,c,1,0.363,1,0,6,4,1,5,hiragana5.xlsx,hiragana51.xlsx,6,0,180,1,1,179,Q,B,c,c,,,,,,,,,,,,,,,,,,,,,,
,,,,,,,,,,,,,,,,,,2019-05-23_20h20.01.183,Probabilistic Learning,3.1.0,60,,,,,c,0,0.397,1,0,6,4,1,5,hiragana5.xlsx,hiragana51.xlsx,6,0,180,27,1,179,j,S,m,,,c,,,,,,,,,,,,,,,,,,,,
,,,,,,,,,,,,,,,,,,2019-05-23_20h20.01.183,Probabilistic Learning,3.1.0,60,,,,,m,1,0.478,1,0,6,4,1,5,hiragana5.xlsx,hiragana51.xlsx,,,,,,,,,,,,,space,1.113,space,1.147,m,0.23,2,0,92,6,1,91,Q,h,A,C,c,,,
,,,,,,,,,,,,,,,,,,2019-05-23_20h20.01.183,Probabilistic Learning,3.1.0,60,,,,,,,,1,0,6,4,1,5,hiragana5.xlsx,hiragana51.xlsx,,,,,,,,,,,,,,,,,m,0.163,2,0,92,13,1,91,G,Q,D,A,m,,,
,,,,,,,,,,,,,,,,,,2019-05-23_20h20.01.183,Probabilistic Learning,3.1.0,60,,,,,,,,1,0,6,4,1,5,hiragana5.xlsx,hiragana51.xlsx,,,,,,,,,,,,,,,,,m,0.048,2,0,92,29,1,91,G,B,D,B,,c,,
,,,,,,,,,,,,,,,,,,2019-05-23_20h20.01.183,Probabilistic Learning,3.1.0,60,,,,,,,,1,0,6,4,1,5,hiragana5.xlsx,hiragana51.xlsx,,,,,,,,,,,,,,,,,m,0.028,2,0,92,33,1,91,j,B,E,B,,c,,
,,,,,,,,,,,,,,,,,,2019-05-23_20h20.01.183,Probabilistic Learning,3.1.0,60,,,,,,,,1,0,6,4,1,5,hiragana5.xlsx,hiragana51.xlsx,,,,,,,,,,,,,,,,,m,0.014,2,0,92,3,1,91,G,h,D,C,,,,
,,,,,,,,,,,,,,,,,,2019-05-23_20h20.01.183,Probabilistic Learning,3.1.0,60,,,,,,,,1,0,6,4,1,5,hiragana5.xlsx,hiragana51.xlsx,,,,,,,,,,,,,,,,,m,0.013,2,0,92,8,1,91,h,Q,C,A,m,,,
,,,,,,,,,,,,,,,,,,2019-05-23_20h20.01.183,Probabilistic Learning,3.1.0,60,,,,,,,,1,0,6,4,1,5,hiragana5.xlsx,hiragana51.xlsx,,,,,,,,,,,,,,,,,m,0.147,2,0,92,0,1,91,Q,B,A,B,,,,
,,,,,,,,,,,,,,,,,,2019-05-23_20h20.01.183,Probabilistic Learning,3.1.0,60,,,,,,,,1,0,6,4,1,5,hiragana5.xlsx,hiragana51.xlsx,,,,,,,,,,,,,,,,,m,0.095,2,0,92,36,1,91,S,B,F,B,,c,,
,,,,,,,,,,,,,,,,,,2019-05-23_20h20.01.183,Probabilistic Learning,3.1.0,60,,,,,,,,1,0,6,4,1,5,hiragana5.xlsx,hiragana51.xlsx,,,,,,,,,,,,,,,,,m,0.013,2,0,92,37,1,91,S,B,F,B,,c,,
,,,,,,,,,,,,,,,,,,2019-05-23_20h20.01.183,Probabilistic Learning,3.1.0,60,,,,,,,,1,0,6,4,1,5,hiragana5.xlsx,hiragana51.xlsx,,,,,,,,,,,,,,,,,m,0.13,2,0,92,26,1,91,B,G,B,D,,m,,
,,,,,,,,,,,,,,,,,,2019-05-23_20h20.01.183,Probabilistic Learning,3.1.0,60,,,,,,,,1,0,6,4,1,5,hiragana5.xlsx,hiragana51.xlsx,,,,,,,,,,,,,,,,,m,0.147,2,0,92,10,1,91,Q,G,A,D,c,,,
,,,,,,,,,,,,,,,,,,2019-05-23_20h20.01.183,Probabilistic Learning,3.1.0,60,,,,,,,,1,0,6,4,1,5,hiragana5.xlsx,hiragana51.xlsx,,,,,,,,,,,,,,,,,m,0.03,2,0,92,38,1,91,h,j,C,E,,,,
,,,,,,,,,,,,,,,,,,2019-05-23_20h20.01.183,Probabilistic Learning,3.1.0,60,,,,,,,,1,0,6,4,1,5,hiragana5.xlsx,hiragana51.xlsx,,,,,,,,,,,,,,,,,m,0.047,2,0,92,40,1,91,h,S,c,f,,,,
,,,,,,,,,,,,,,,,,,2019-05-23_20h20.01.183,Probabilistic Learning,3.1.0,60,,,,,,,,1,0,6,4,1,5,hiragana5.xlsx,hiragana51.xlsx,,,,,,,,,,,,,,,,,m,0.146,2,0,92,7,1,91,Q,h,A,C,c,,,
,,,,,,,,,,,,,,,,,,2019-05-23_20h20.01.183,Probabilistic Learning,3.1.0,60,,,,,,,,1,0,6,4,1,5,hiragana5.xlsx,hiragana51.xlsx,,,,,,,,,,,,,,,,,m,0.078,2,0,92,34,1,91,B,S,B,F,,m,,
,,,,,,,,,,,,,,,,,,2019-05-23_20h20.01.183,Probabilistic Learning,3.1.0,60,,,,,,,,1,0,6,4,1,5,hiragana5.xlsx,hiragana51.xlsx,,,,,,,,,,,,,,,,,m,0.262,2,0,92,30,1,91,B,j,B,E,,m,,
,,,,,,,,,,,,,,,,,,2019-05-23_20h20.01.183,Probabilistic Learning,3.1.0,60,,,,,,,,1,0,6,4,1,5,hiragana5.xlsx,hiragana51.xlsx,,,,,,,,,,,,,,,,,m,0.063,2,0,92,16,1,91,j,Q,E,A,m,,,
,,,,,,,,,,,,,,,,,,2019-05-23_20h20.01.183,Probabilistic Learning,3.1.0,60,,,,,,,,1,0,6,4,1,5,hiragana5.xlsx,hiragana51.xlsx,,,,,,,,,,,,,,,,,m,0.197,2,0,92,4,1,91,j,S,E,F,,,,
,,,,,,,,,,,,,,,,,,2019-05-23_20h20.01.183,Probabilistic Learning,3.1.0,60,,,,,,,,1,0,6,4,1,5,hiragana5.xlsx,hiragana51.xlsx,,,,,,,,,,,,,,,,,m,0.063,2,0,92,27,1,91,B,G,B,D,,m,,
,,,,,,,,,,,,,,,,,,2019-05-23_20h20.01.183,Probabilistic Learning,3.1.0,60,,,,,,,,1,0,6,4,1,5,hiragana5.xlsx,hiragana51.xlsx,,,,,,,,,,,,,,,,,m,0.047,2,0,92,5,1,91,S,j,F,E,,,,
,,,,,,,,,,,,,,,,,,2019-05-23_20h20.01.183,Probabilistic Learning,3.1.0,60,,,,,,,,1,0,6,4,1,5,hiragana5.xlsx,hiragana51.xlsx,,,,,,,,,,,,,,,,,m,0.047,2,0,92,9,1,91,h,Q,C,A,m,,,
,,,,,,,,,,,,,,,,,,2019-05-23_20h20.01.183,Probabilistic Learning,3.1.0,60,,,,,,,,1,0,6,4,1,5,hiragana5.xlsx,hiragana51.xlsx,,,,,,,,,,,,,,,,,m,0.214,2,0,92,41,1,91,S,h,f,c,,,,
,,,,,,,,,,,,,,,,,,2019-05-23_20h20.01.183,Probabilistic Learning,3.1.0,60,,,,,,,,1,0,6,4,1,5,hiragana5.xlsx,hiragana51.xlsx,,,,,,,,,,,,,,,,,m,0.18,2,0,92,14,1,91,Q,j,A,E,c,,,
,,,,,,,,,,,,,,,,,,2019-05-23_20h20.01.183,Probabilistic Learning,3.1.0,60,,,,,,,,1,0,6,4,1,5,hiragana5.xlsx,hiragana51.xlsx,,,,,,,,,,,,,,,,,m,0.098,2,0,92,23,1,91,B,h,B,C,,m,,
,,,,,,,,,,,,,,,,,,2019-05-23_20h20.01.183,Probabilistic Learning,3.1.0,60,,,,,,,,1,0,6,4,1,5,hiragana5.xlsx,hiragana51.xlsx,,,,,,,,,,,,,,,,,m,0.163,2,0,92,43,1,91,j,G,e,d,,,,
,,,,,,,,,,,,,,,,,,2019-05-23_20h20.01.183,Probabilistic Learning,3.1.0,60,,,,,,,,1,0,6,4,1,5,hiragana5.xlsx,hiragana51.xlsx,,,,,,,,,,,,,,,,,m,0.195,2,0,92,1,1,91,B,Q,B,A,,,,
,,,,,,,,,,,,,,,,,,2019-05-23_20h20.01.183,Probabilistic Learning,3.1.0,60,,,,,,,,1,0,6,4,1,5,hiragana5.xlsx,hiragana51.xlsx,,,,,,,,,,,,,,,,,m,0.16,2,0,92,21,1,91,S,Q,F,A,m,,,
,,,,,,,,,,,,,,,,,,2019-05-23_20h20.01.183,Probabilistic Learning,3.1.0,60,,,,,,,,1,0,6,4,1,5,hiragana5.xlsx,hiragana51.xlsx,,,,,,,,,,,,,,,,,m,0.047,2,0,92,15,1,91,Q,j,A,E,c,,,
,,,,,,,,,,,,,,,,,,2019-05-23_20h20.01.183,Probabilistic Learning,3.1.0,60,,,,,,,,1,0,6,4,1,5,hiragana5.xlsx,hiragana51.xlsx,,,,,,,,,,,,,,,,,m,0.212,2,0,92,32,1,91,j,B,E,B,,c,,
,,,,,,,,,,,,,,,,,,2019-05-23_20h20.01.183,Probabilistic Learning,3.1.0,60,,,,,,,,1,0,6,4,1,5,hiragana5.xlsx,hiragana51.xlsx,,,,,,,,,,,,,,,,,m,0.18,2,0,92,35,1,91,B,S,B,F,,m,,
,,,,,,,,,,,,,,,,,,2019-05-23_20h20.01.183,Probabilistic Learning,3.1.0,60,,,,,,,,1,0,6,4,1,5,hiragana5.xlsx,hiragana51.xlsx,,,,,,,,,,,,,,,,,m,0.197,2,0,92,24,1,91,h,B,C,B,,c,,
,,,,,,,,,,,,,,,,,,2019-05-23_20h20.01.183,Probabilistic Learning,3.1.0,60,,,,,,,,1,0,6,4,1,5,hiragana5.xlsx,hiragana51.xlsx,,,,,,,,,,,,,,,,,m,0.031,2,0,92,28,1,91,G,B,D,B,,c,,
,,,,,,,,,,,,,,,,,,2019-05-23_20h20.01.183,Probabilistic Learning,3.1.0,60,,,,,,,,1,0,6,4,1,5,hiragana5.xlsx,hiragana51.xlsx,,,,,,,,,,,,,,,,,m,0.013,2,0,92,39,1,91,j,h,e,c,,,,
,,,,,,,,,,,,,,,,,,2019-05-23_20h20.01.183,Probabilistic Learning,3.1.0,60,,,,,,,,1,0,6,4,1,5,hiragana5.xlsx,hiragana51.xlsx,,,,,,,,,,,,,,,,,m,0.064,2,0,92,31,1,91,B,j,B,E,,m,,
,,,,,,,,,,,,,,,,,,2019-05-23_20h20.01.183,Probabilistic Learning,3.1.0,60,,,,,,,,1,0,6,4,1,5,hiragana5.xlsx,hiragana51.xlsx,,,,,,,,,,,,,,,,,m,0.214,2,0,92,17,1,91,j,Q,E,A,m,,,
,,,,,,,,,,,,,,,,,,2019-05-23_20h20.01.183,Probabilistic Learning,3.1.0,60,,,,,,,,1,0,6,4,1,5,hiragana5.xlsx,hiragana51.xlsx,,,,,,,,,,,,,,,,,m,0.213,2,0,92,45,1,91,S,G,f,d,,,,
,,,,,,,,,,,,,,,,,,2019-05-23_20h20.01.183,Probabilistic Learning,3.1.0,60,,,,,,,,1,0,6,4,1,5,hiragana5.xlsx,hiragana51.xlsx,,,,,,,,,,,,,,,,,m,0.18,2,0,92,11,1,91,Q,G,A,D,c,,,
,,,,,,,,,,,,,,,,,,2019-05-23_20h20.01.183,Probabilistic Learning,3.1.0,60,,,,,,,,1,0,6,4,1,5,hiragana5.xlsx,hiragana51.xlsx,,,,,,,,,,,,,,,,,m,0.11,2,0,92,20,1,91,S,Q,F,A,m,,,
,,,,,,,,,,,,,,,,,,2019-05-23_20h20.01.183,Probabilistic Learning,3.1.0,60,,,,,,,,1,0,6,4,1,5,hiragana5.xlsx,hiragana51.xlsx,,,,,,,,,,,,,,,,,m,0.497,2,0,92,44,1,91,G,S,d,f,,,,
,,,,,,,,,,,,,,,,,,2019-05-23_20h20.01.183,Probabilistic Learning,3.1.0,60,,,,,,,,1,0,6,4,1,5,hiragana5.xlsx,hiragana51.xlsx,,,,,,,,,,,,,,,,,m,0.113,2,0,92,2,1,91,h,G,C,D,,,,
,,,,,,,,,,,,,,,,,,2019-05-23_20h20.01.183,Probabilistic Learning,3.1.0,60,,,,,,,,1,0,6,4,1,5,hiragana5.xlsx,hiragana51.xlsx,,,,,,,,,,,,,,,,,m,0.095,2,0,92,22,1,91,B,h,B,C,,m,,
,,,,,,,,,,,,,,,,,,2019-05-23_20h20.01.183,Probabilistic Learning,3.1.0,60,,,,,,,,1,0,6,4,1,5,hiragana5.xlsx,hiragana51.xlsx,,,,,,,,,,,,,,,,,m,0.147,2,0,92,12,1,91,G,Q,D,A,m,,,
,,,,,,,,,,,,,,,,,,2019-05-23_20h20.01.183,Probabilistic Learning,3.1.0,60,,,,,,,,1,0,6,4,1,5,hiragana5.xlsx,hiragana51.xlsx,,,,,,,,,,,,,,,,,m,0.128,2,0,92,25,1,91,h,B,C,B,,c,,
,,,,,,,,,,,,,,,,,,2019-05-23_20h20.01.183,Probabilistic Learning,3.1.0,60,,,,,,,,1,0,6,4,1,5,hiragana5.xlsx,hiragana51.xlsx,,,,,,,,,,,,,,,,,m,0.014,2,0,92,19,1,91,Q,S,A,F,c,,,
,,,,,,,,,,,,,,,,,,2019-05-23_20h20.01.183,Probabilistic Learning,3.1.0,60,,,,,,,,1,0,6,4,1,5,hiragana5.xlsx,hiragana51.xlsx,,,,,,,,,,,,,,,,,m,0.113,2,0,92,42,1,91,G,j,d,e,,,,
,,,,,,,,,,,,,,,,,,2019-05-23_20h20.01.183,Probabilistic Learning,3.1.0,60,,,,,,,,1,0,6,4,1,5,hiragana5.xlsx,hiragana51.xlsx,,,,,,,,,,,,,,,,,m,0.214,2,0,92,18,1,91,Q,S,A,F,c,,,
,,,,,,,,,,,,,,,,,,2019-05-23_20h20.01.183,Probabilistic Learning,3.1.0,60,,,,,,,,1,0,6,4,1,5,hiragana5.xlsx,hiragana51.xlsx,,,,,,,,,,,,,,,,,m,0.213,2,0,92,0,1,91,Q,B,A,B,,,,
,,,,,,,,,,,,,,,,,,2019-05-23_20h20.01.183,Probabilistic Learning,3.1.0,60,,,,,,,,1,0,6,4,1,5,hiragana5.xlsx,hiragana51.xlsx,,,,,,,,,,,,,,,,,m,0.114,2,0,92,18,1,91,Q,S,A,F,c,,,
,,,,,,,,,,,,,,,,,,2019-05-23_20h20.01.183,Probabilistic Learning,3.1.0,60,,,,,,,,1,0,6,4,1,5,hiragana5.xlsx,hiragana51.xlsx,,,,,,,,,,,,,,,,,m,0.145,2,0,92,42,1,91,G,j,d,e,,,,
,,,,,,,,,,,,,,,,,,2019-05-23_20h20.01.183,Probabilistic Learning,3.1.0,60,,,,,,,,1,0,6,4,1,5,hiragana5.xlsx,hiragana51.xlsx,,,,,,,,,,,,,,,,,m,0.164,2,0,92,33,1,91,j,B,E,B,,c,,
,,,,,,,,,,,,,,,,,,2019-05-23_20h20.01.183,Probabilistic Learning,3.1.0,60,,,,,,,,1,0,6,4,1,5,hiragana5.xlsx,hiragana51.xlsx,,,,,,,,,,,,,,,,,m,0.097,2,0,92,36,1,91,S,B,F,B,,c,,
,,,,,,,,,,,,,,,,,,2019-05-23_20h20.01.183,Probabilistic Learning,3.1.0,60,,,,,,,,1,0,6,4,1,5,hiragana5.xlsx,hiragana51.xlsx,,,,,,,,,,,,,,,,,m,0.031,2,0,92,19,1,91,Q,S,A,F,c,,,
,,,,,,,,,,,,,,,,,,2019-05-23_20h20.01.183,Probabilistic Learning,3.1.0,60,,,,,,,,1,0,6,4,1,5,hiragana5.xlsx,hiragana51.xlsx,,,,,,,,,,,,,,,,,m,0.046,2,0,92,23,1,91,B,h,B,C,,m,,
,,,,,,,,,,,,,,,,,,2019-05-23_20h20.01.183,Probabilistic Learning,3.1.0,60,,,,,,,,1,0,6,4,1,5,hiragana5.xlsx,hiragana51.xlsx,,,,,,,,,,,,,,,,,m,0.014,2,0,92,37,1,91,S,B,F,B,,c,,
,,,,,,,,,,,,,,,,,,2019-05-23_20h20.01.183,Probabilistic Learning,3.1.0,60,,,,,,,,1,0,6,4,1,5,hiragana5.xlsx,hiragana51.xlsx,,,,,,,,,,,,,,,,,m,0.013,2,0,92,2,1,91,h,G,C,D,,,,
,,,,,,,,,,,,,,,,,,2019-05-23_20h20.01.183,Probabilistic Learning,3.1.0,60,,,,,,,,1,0,6,4,1,5,hiragana5.xlsx,hiragana51.xlsx,,,,,,,,,,,,,,,,,m,0.147,2,0,92,8,1,91,h,Q,C,A,m,,,
,,,,,,,,,,,,,,,,,,2019-05-23_20h20.01.183,Probabilistic Learning,3.1.0,60,,,,,,,,1,0,6,4,1,5,hiragana5.xlsx,hiragana51.xlsx,,,,,,,,,,,,,,,,,m,0.162,2,0,92,34,1,91,B,S,B,F,,m,,
,,,,,,,,,,,,,,,,,,2019-05-23_20h20.01.183,Probabilistic Learning,3.1.0,60,,,,,,,,1,0,6,4,1,5,hiragana5.xlsx,hiragana51.xlsx,,,,,,,,,,,,,,,,,m,0.064,2,0,92,10,1,91,Q,G,A,D,c,,,
,,,,,,,,,,,,,,,,,,2019-05-23_20h20.01.183,Probabilistic Learning,3.1.0,60,,,,,,,,1,0,6,4,1,5,hiragana5.xlsx,hiragana51.xlsx,,,,,,,,,,,,,,,,,m,0.112,2,0,92,30,1,91,B,j,B,E,,m,,
,,,,,,,,,,,,,,,,,,2019-05-23_20h20.01.183,Probabilistic Learning,3.1.0,60,,,,,,,,1,0,6,4,1,5,hiragana5.xlsx,hiragana51.xlsx,,,,,,,,,,,,,,,,,m,0.096,2,0,92,35,1,91,B,S,B,F,,m,,
,,,,,,,,,,,,,,,,,,2019-05-23_20h20.01.183,Probabilistic Learning,3.1.0,60,,,,,,,,1,0,6,4,1,5,hiragana5.xlsx,hiragana51.xlsx,,,,,,,,,,,,,,,,,m,0.064,2,0,92,21,1,91,S,Q,F,A,m,,,
,,,,,,,,,,,,,,,,,,2019-05-23_20h20.01.183,Probabilistic Learning,3.1.0,60,,,,,,,,1,0,6,4,1,5,hiragana5.xlsx,hiragana51.xlsx,,,,,,,,,,,,,,,,,m,0.08,2,0,92,15,1,91,Q,j,A,E,c,,,
,,,,,,,,,,,,,,,,,,2019-05-23_20h20.01.183,Probabilistic Learning,3.1.0,60,,,,,,,,1,0,6,4,1,5,hiragana5.xlsx,hiragana51.xlsx,,,,,,,,,,,,,,,,,m,0.147,2,0,92,12,1,91,G,Q,D,A,m,,,
,,,,,,,,,,,,,,,,,,2019-05-23_20h20.01.183,Probabilistic Learning,3.1.0,60,,,,,,,,1,0,6,4,1,5,hiragana5.xlsx,hiragana51.xlsx,,,,,,,,,,,,,,,,,m,0.047,2,0,92,32,1,91,j,B,E,B,,c,,
,,,,,,,,,,,,,,,,,,2019-05-23_20h20.01.183,Probabilistic Learning,3.1.0,60,,,,,,,,1,0,6,4,1,5,hiragana5.xlsx,hiragana51.xlsx,,,,,,,,,,,,,,,,,m,0.03,2,0,92,5,1,91,S,j,F,E,,,,
,,,,,,,,,,,,,,,,,,2019-05-23_20h20.01.183,Probabilistic Learning,3.1.0,60,,,,,,,,1,0,6,4,1,5,hiragana5.xlsx,hiragana51.xlsx,,,,,,,,,,,,,,,,,m,0.047,2,0,92,3,1,91,G,h,D,C,,,,
,,,,,,,,,,,,,,,,,,2019-05-23_20h20.01.183,Probabilistic Learning,3.1.0,60,,,,,,,,1,0,6,4,1,5,hiragana5.xlsx,hiragana51.xlsx,,,,,,,,,,,,,,,,,m,0.212,2,0,92,13,1,91,G,Q,D,A,m,,,
,,,,,,,,,,,,,,,,,,2019-05-23_20h20.01.183,Probabilistic Learning,3.1.0,60,,,,,,,,1,0,6,4,1,5,hiragana5.xlsx,hiragana51.xlsx,,,,,,,,,,,,,,,,,m,0.13,2,0,92,28,1,91,G,B,D,B,,c,,
,,,,,,,,,,,,,,,,,,2019-05-23_20h20.01.183,Probabilistic Learning,3.1.0,60,,,,,,,,1,0,6,4,1,5,hiragana5.xlsx,hiragana51.xlsx,,,,,,,,,,,,,,,,,m,0.111,2,0,92,26,1,91,B,G,B,D,,m,,
,,,,,,,,,,,,,,,,,,2019-05-23_20h20.01.183,Probabilistic Learning,3.1.0,60,,,,,,,,1,0,6,4,1,5,hiragana5.xlsx,hiragana51.xlsx,,,,,,,,,,,,,,,,,m,0.047,2,0,92,25,1,91,h,B,C,B,,c,,
,,,,,,,,,,,,,,,,,,2019-05-23_20h20.01.183,Probabilistic Learning,3.1.0,60,,,,,,,,1,0,6,4,1,5,hiragana5.xlsx,hiragana51.xlsx,,,,,,,,,,,,,,,,,m,0.13,2,0,92,11,1,91,Q,G,A,D,c,,,
,,,,,,,,,,,,,,,,,,2019-05-23_20h20.01.183,Probabilistic Learning,3.1.0,60,,,,,,,,1,0,6,4,1,5,hiragana5.xlsx,hiragana51.xlsx,,,,,,,,,,,,,,,,,m,0.114,2,0,92,27,1,91,B,G,B,D,,m,,
,,,,,,,,,,,,,,,,,,2019-05-23_20h20.01.183,Probabilistic Learning,3.1.0,60,,,,,,,,1,0,6,4,1,5,hiragana5.xlsx,hiragana51.xlsx,,,,,,,,,,,,,,,,,m,0.095,2,0,92,17,1,91,j,Q,E,A,m,,,
,,,,,,,,,,,,,,,,,,2019-05-23_20h20.01.183,Probabilistic Learning,3.1.0,60,,,,,,,,1,0,6,4,1,5,hiragana5.xlsx,hiragana51.xlsx,,,,,,,,,,,,,,,,,m,0.063,2,0,92,41,1,91,S,h,f,c,,,,
,,,,,,,,,,,,,,,,,,2019-05-23_20h20.01.183,Probabilistic Learning,3.1.0,60,,,,,,,,1,0,6,4,1,5,hiragana5.xlsx,hiragana51.xlsx,,,,,,,,,,,,,,,,,m,0.079,2,0,92,31,1,91,B,j,B,E,,m,,
,,,,,,,,,,,,,,,,,,2019-05-23_20h20.01.183,Probabilistic Learning,3.1.0,60,,,,,,,,1,0,6,4,1,5,hiragana5.xlsx,hiragana51.xlsx,,,,,,,,,,,,,,,,,m,0.179,2,0,92,40,1,91,h,S,c,f,,,,
,,,,,,,,,,,,,,,,,,2019-05-23_20h20.01.183,Probabilistic Learning,3.1.0,60,,,,,,,,1,0,6,4,1,5,hiragana5.xlsx,hiragana51.xlsx,,,,,,,,,,,,,,,,,m,0.097,2,0,92,22,1,91,B,h,B,C,,m,,
,,,,,,,,,,,,,,,,,,2019-05-23_20h20.01.183,Probabilistic Learning,3.1.0,60,,,,,,,,1,0,6,4,1,5,hiragana5.xlsx,hiragana51.xlsx,,,,,,,,,,,,,,,,,m,0.197,2,0,92,43,1,91,j,G,e,d,,,,
,,,,,,,,,,,,,,,,,,2019-05-23_20h20.01.183,Probabilistic Learning,3.1.0,60,,,,,,,,1,0,6,4,1,5,hiragana5.xlsx,hiragana51.xlsx,,,,,,,,,,,,,,,,,m,0.147,2,0,92,45,1,91,S,G,f,d,,,,
,,,,,,,,,,,,,,,,,,2019-05-23_20h20.01.183,Probabilistic Learning,3.1.0,60,,,,,,,,1,0,6,4,1,5,hiragana5.xlsx,hiragana51.xlsx,,,,,,,,,,,,,,,,,m,0.096,2,0,92,16,1,91,j,Q,E,A,m,,,
,,,,,,,,,,,,,,,,,,2019-05-23_20h20.01.183,Probabilistic Learning,3.1.0,60,,,,,,,,1,0,6,4,1,5,hiragana5.xlsx,hiragana51.xlsx,,,,,,,,,,,,,,,,,m,0.229,2,0,92,9,1,91,h,Q,C,A,m,,,
,,,,,,,,,,,,,,,,,,2019-05-23_20h20.01.183,Probabilistic Learning,3.1.0,60,,,,,,,,1,0,6,4,1,5,hiragana5.xlsx,hiragana51.xlsx,,,,,,,,,,,,,,,,,m,0.03,2,0,92,44,1,91,G,S,d,f,,,,
,,,,,,,,,,,,,,,,,,2019-05-23_20h20.01.183,Probabilistic Learning,3.1.0,60,,,,,,,,1,0,6,4,1,5,hiragana5.xlsx,hiragana51.xlsx,,,,,,,,,,,,,,,,,m,0.063,2,0,92,29,1,91,G,B,D,B,,c,,
,,,,,,,,,,,,,,,,,,2019-05-23_20h20.01.183,Probabilistic Learning,3.1.0,60,,,,,,,,1,0,6,4,1,5,hiragana5.xlsx,hiragana51.xlsx,,,,,,,,,,,,,,,,,m,0.08,2,0,92,20,1,91,S,Q,F,A,m,,,
,,,,,,,,,,,,,,,,,,2019-05-23_20h20.01.183,Probabilistic Learning,3.1.0,60,,,,,,,,1,0,6,4,1,5,hiragana5.xlsx,hiragana51.xlsx,,,,,,,,,,,,,,,,,m,0.014,2,0,92,1,1,91,B,Q,B,A,,,,
,,,,,,,,,,,,,,,,,,2019-05-23_20h20.01.183,Probabilistic Learning,3.1.0,60,,,,,,,,1,0,6,4,1,5,hiragana5.xlsx,hiragana51.xlsx,,,,,,,,,,,,,,,,,m,0.13,2,0,92,6,1,91,Q,h,A,C,c,,,
,,,,,,,,,,,,,,,,,,2019-05-23_20h20.01.183,Probabilistic Learning,3.1.0,60,,,,,,,,1,0,6,4,1,5,hiragana5.xlsx,hiragana51.xlsx,,,,,,,,,,,,,,,,,m,0.181,2,0,92,4,1,91,j,S,E,F,,,,
,,,,,,,,,,,,,,,,,,2019-05-23_20h20.01.183,Probabilistic Learning,3.1.0,60,,,,,,,,1,0,6,4,1,5,hiragana5.xlsx,hiragana51.xlsx,,,,,,,,,,,,,,,,,m,0.261,2,0,92,7,1,91,Q,h,A,C,c,,,
,,,,,,,,,,,,,,,,,,2019-05-23_20h20.01.183,Probabilistic Learning,3.1.0,60,,,,,,,,1,0,6,4,1,5,hiragana5.xlsx,hiragana51.xlsx,,,,,,,,,,,,,,,,,m,0.011,2,0,92,14,1,91,Q,j,A,E,c,,,
,,,,,,,,,,,,,,,,,,2019-05-23_20h20.01.183,Probabilistic Learning,3.1.0,60,,,,,,,,1,0,6,4,1,5,hiragana5.xlsx,hiragana51.xlsx,,,,,,,,,,,,,,,,,m,0.113,2,0,92,38,1,91,h,j,C,E,,,,
,,,,,,,,,,,,,,,,,,2019-05-23_20h20.01.183,Probabilistic Learning,3.1.0,60,,,,,,,,1,0,6,4,1,5,hiragana5.xlsx,hiragana51.xlsx,,,,,,,,,,,,,,,,,m,0.063,2,0,92,24,1,91,h,B,C,B,,c,,
,,,,,,,,,,,,,,,,,,2019-05-23_20h20.01.183,Probabilistic Learning,3.1.0,60,,,,,,,,1,0,6,4,1,5,hiragana5.xlsx,hiragana51.xlsx,,,,,,,,,,,,,,,,,m,0.014,2,0,92,39,1,91,j,h,e,c,,,,
,,,,,,,,,,,,,,,,,,2019-05-23_20h20.01.183,Probabilistic Learning,3.1.0,60,,,,,,,,1,0,6,4,1,5,hiragana5.xlsx,hiragana51.xlsx,,,,,,,,,,,,,,,,,,,,,,,,,,,,,,,m,0.163
,,,,,,,,,,,,,,,,,,2019-05-23_20h20.01.183,Probabilistic Learning,3.1.0,60,,,space,2.915,m,0,0.229,1,0,6,3,1,5,hiragana4.xlsx,hiragana41.xlsx,6,0,180,10,1,179,c,i,c,,c,,,,,,,,,,,,,,,,,,,,,
